# 2Theta,Counts
  36.29020,  49.21923
  36.31022,  56.77087
  36.33024,  55.92749
  36.35025,  49.86642
  36.37027,  56.74296
  36.39029,  51.68979
  36.41031,  47.38064
  36.43033,  51.46860
  36.45034,  49.36961
  36.47036,  46.46964
  36.49038,  52.04458
  36.51040,  53.07716
  36.53041,  58.76172
  36.55043,  55.67571
  36.57045,  56.78066
  36.59047,  49.28242
  36.61049,  44.27351
  36.63050,  44.45330
  36.65052,  52.20745
  36.67054,  48.30697
  36.69056,  50.83811
  36.71058,  48.01219
  36.73059,  47.17026
  36.75061,  44.87526
  36.77063,  56.99346
  36.79065,  54.61106
  36.81067,  52.26359
  36.83068,  56.02410
  36.85070,  52.09042
  36.87072,  51.53709
  36.89074,  52.18267
  36.91075,  48.48394
  36.93077,  51.61372
  36.95079,  49.95572
  36.97081,  47.41434
  36.99083,  56.45635
  37.01084,  49.79105
  37.03086,  46.28781
  37.05088,  43.64579
  37.07090,  47.50534
  37.09092,  52.21657
  37.11093,  48.69602
  37.13095,  53.11724
  37.15097,  52.41797
  37.17099,  50.01639
  37.19100,  50.76629
  37.21102,  47.45771
  37.23104,  52.63901
  37.25106,  48.33167
  37.27108,  48.36360
  37.29110,  49.87150
  37.31111,  46.53435
  37.33113,  47.27106
  37.35115,  47.70503
  37.37117,  52.02155
  37.39118,  53.02822
  37.41120,  51.25119
  37.43122,  51.43921
  37.45124,  53.52161
  37.47126,  50.08575
  37.49127,  44.41786
  37.51129,  50.64932
  37.53131,  53.09945
  37.55133,  49.96987
  37.57135,  49.54801
  37.59136,  50.89863
  37.61138,  49.12313
  37.63140,  45.99353
  37.65142,  48.23376
  37.67144,  57.07943
  37.69145,  51.37311
  37.71147,  48.43501
  37.73149,  46.99472
  37.75151,  49.82113
  37.77152,  51.75082
  37.79154,  48.67850
  37.81156,  47.57580
  37.83158,  51.38946
  37.85160,  49.93199
  37.87162,  51.68119
  37.89163,  45.90045
  37.91165,  49.67968
  37.93167,  51.44276
  37.95169,  49.34042
  37.97171,  51.79524
  37.99172,  46.02530
  38.01174,  46.05698
  38.03176,  48.72034
  38.05178,  56.40944
  38.07179,  51.21935
  38.09181,  48.58243
  38.11183,  49.96806
  38.13185,  48.63694
  38.15187,  50.60771
  38.17189,  45.78547
  38.19190,  45.57552
  38.21192,  47.33211
  38.23194,  47.42815
  38.25196,  46.24886
  38.27198,  47.93554
  38.29199,  47.27266
  38.31201,  44.90179
  38.33203,  45.69005
  38.35205,  48.12415
  38.37207,  45.05495
  38.39208,  51.50171
  38.41210,  53.96567
  38.43212,  44.00705
  38.45214,  51.47163
  38.47216,  45.58997
  38.49217,  52.14845
  38.51219,  57.11586
  38.53221,  54.89281
  38.55223,  48.90873
  38.57225,  51.85450
  38.59226,  49.03357
  38.61228,  51.45845
  38.63230,  48.31757
  38.65232,  48.14018
  38.67234,  49.89677
  38.69236,  49.68793
  38.71237,  49.52324
  38.73239,  49.94197
  38.75241,  49.17596
  38.77243,  50.05211
  38.79245,  51.28156
  38.81246,  48.20084
  38.83248,  45.80889
  38.85250,  51.28070
  38.87252,  46.04494
  38.89254,  44.10601
  38.91255,  51.71235
  38.93257,  47.23639
  38.95259,  49.20301
  38.97261,  47.81101
  38.99263,  50.17013
  39.01264,  47.72456
  39.03266,  46.96567
  39.05268,  47.64248
  39.07270,  46.88144
  39.09272,  47.23340
  39.11274,  43.09712
  39.13275,  48.05647
  39.15277,  49.82124
  39.17279,  50.59912
  39.19281,  47.76136
  39.21283,  48.00181
  39.23284,  43.68663
  39.25286,  44.61962
  39.27288,  45.08333
  39.29290,  43.46652
  39.31292,  48.66682
  39.33293,  48.08960
  39.35295,  48.40330
  39.37297,  52.54496
  39.39299,  50.17774
  39.41301,  45.66808
  39.43303,  51.59632
  39.45304,  43.31878
  39.47306,  46.99005
  39.49308,  45.08138
  39.51310,  47.18944
  39.53312,  49.80177
  39.55313,  49.08807
  39.57315,  51.97651
  39.59317,  47.76700
  39.61319,  47.35865
  39.63321,  42.23192
  39.65323,  47.01792
  39.67324,  49.82810
  39.69326,  47.99175
  39.71328,  48.77583
  39.73330,  48.64643
  39.75332,  47.69769
  39.77334,  45.35829
  39.79335,  44.85316
  39.81337,  43.19584
  39.83339,  43.24310
  39.85341,  44.78557
  39.87343,  47.15371
  39.89344,  47.20048
  39.91346,  49.35197
  39.93348,  44.76325
  39.95350,  48.89488
  39.97352,  47.46680
  39.99354,  42.86974
  40.01355,  43.04823
  40.03357,  49.54659
  40.05359,  46.52315
  40.07361,  52.20002
  40.09363,  46.38291
  40.11364,  45.10648
  40.13366,  49.98929
  40.15368,  44.87499
  40.17370,  44.54549
  40.19372,  47.38438
  40.21374,  43.37719
  40.23375,  49.67082
  40.25377,  47.68109
  40.27379,  40.88732
  40.29381,  44.22367
  40.31383,  45.47785
  40.33384,  42.79632
  40.35386,  44.34534
  40.37388,  41.74387
  40.39390,  42.19773
  40.41392,  42.65423
  40.43394,  43.39919
  40.45396,  44.77443
  40.47397,  50.03449
  40.49399,  48.07416
  40.51401,  46.82366
  40.53403,  43.61259
  40.55405,  45.80377
  40.57406,  41.33343
  40.59408,  50.82979
  40.61410,  42.71669
  40.63412,  43.43624
  40.65414,  44.42437
  40.67416,  45.99599
  40.69418,  45.54683
  40.71419,  46.05550
  40.73421,  45.73119
  40.75423,  39.28161
  40.77425,  41.41510
  40.79427,  43.33660
  40.81428,  40.29786
  40.83430,  44.41026
  40.85432,  40.41385
  40.87434,  41.01176
  40.89436,  42.62854
  40.91438,  46.23755
  40.93439,  43.44769
  40.95441,  43.37266
  40.97443,  46.24874
  40.99445,  41.65490
  41.01447,  42.47377
  41.03449,  49.12222
  41.05450,  48.67426
  41.07452,  45.32054
  41.09454,  48.60969
  41.11456,  47.80842
  41.13458,  50.50242
  41.15460,  49.54610
  41.17461,  47.83609
  41.19463,  47.16486
  41.21465,  39.95123
  41.23467,  42.02091
  41.25469,  41.49513
  41.27471,  39.88273
  41.29472,  45.94844
  41.31474,  48.44436
  41.33476,  48.55253
  41.35478,  40.30041
  41.37480,  39.43089
  41.39482,  42.46498
  41.41484,  44.38412
  41.43485,  44.66203
  41.45487,  48.16542
  41.47489,  50.43975
  41.49491,  42.13184
  41.51493,  40.92709
  41.53495,  45.35822
  41.55496,  49.21019
  41.57498,  43.20132
  41.59500,  43.49875
  41.61502,  44.38353
  41.63504,  45.35626
  41.65506,  43.88860
  41.67507,  46.01349
  41.69509,  44.14843
  41.71511,  44.77178
  41.73513,  45.48397
  41.75515,  41.71379
  41.77517,  45.51375
  41.79519,  40.30779
  41.81520,  42.63253
  41.83522,  43.47639
  41.85524,  47.23158
  41.87526,  47.17812
  41.89528,  47.08651
  41.91530,  46.38823
  41.93532,  44.02976
  41.95533,  40.39213
  41.97535,  41.68291
  41.99537,  42.86799
  42.01539,  49.22100
  42.03541,  34.06326
  42.05543,  39.63983
  42.07544,  45.54802
  42.09546,  44.92291
  42.11548,  44.60650
  42.13550,  39.59953
  42.15552,  44.51646
  42.17554,  47.18280
  42.19556,  44.94219
  42.21557,  43.20020
  42.23559,  37.07825
  42.25561,  37.49385
  42.27563,  47.15078
  42.29565,  43.21970
  42.31567,  45.30123
  42.33568,  46.87263
  42.35570,  42.76171
  42.37572,  42.57933
  42.39574,  43.22210
  42.41576,  43.56855
  42.43578,  43.96190
  42.45580,  42.18109
  42.47581,  42.74936
  42.49583,  42.74592
  42.51585,  39.65307
  42.53587,  42.44429
  42.55589,  41.42863
  42.57591,  43.07408
  42.59592,  45.81251
  42.61594,  45.52719
  42.63596,  50.12077
  42.65598,  43.96731
  42.67600,  39.37430
  42.69602,  41.43240
  42.71604,  43.72211
  42.73605,  47.72598
  42.75607,  43.95059
  42.77609,  46.98689
  42.79611,  47.77845
  42.81613,  38.91619
  42.83615,  44.54110
  42.85617,  45.89801
  42.87618,  45.53646
  42.89620,  43.65167
  42.91622,  41.24658
  42.93624,  47.24953
  42.95626,  48.58346
  42.97628,  43.16992
  42.99630,  43.19450
  43.01632,  46.52693
  43.03633,  47.59580
  43.05635,  49.16248
  43.07637,  47.53636
  43.09639,  43.99519
  43.11641,  45.49210
  43.13643,  47.86049
  43.15645,  47.82677
  43.17646,  47.35066
  43.19648,  52.18910
  43.21650,  45.07473
  43.23652,  42.86527
  43.25654,  44.07270
  43.27656,  51.04849
  43.29658,  45.38858
  43.31659,  50.81262
  43.33661,  50.57544
  43.35663,  52.65418
  43.37665,  51.78697
  43.39667,  46.56668
  43.41669,  57.07453
  43.43671,  61.84173
  43.45672,  68.88033
  43.47674,  74.43230
  43.49676,  79.04934
  43.51678,  86.40967
  43.53680, 117.71410
  43.55682, 130.58802
  43.57684, 154.33327
  43.59686, 185.59406
  43.61687, 220.44169
  43.63689, 247.70710
  43.65691, 272.10646
  43.67693, 304.51681
  43.69695, 324.85538
  43.71697, 339.57105
  43.73699, 357.50231
  43.75700, 373.15992
  43.77702, 368.53401
  43.79704, 375.03182
  43.81706, 366.63507
  43.83708, 340.17041
  43.85710, 310.75776
  43.87712, 287.15939
  43.89714, 267.01496
  43.91715, 237.29953
  43.93717, 214.07078
  43.95719, 185.69776
  43.97721, 165.29578
  43.99723, 143.29686
  44.01725, 124.35387
  44.03727, 105.52587
  44.05729,  99.29713
  44.07730,  90.72117
  44.09732,  73.75406
  44.11734,  69.64487
  44.13736,  64.85242
  44.15738,  62.33599
  44.17740,  64.42684
  44.19742,  62.25233
  44.21744,  56.38672
  44.23745,  47.83378
  44.25747,  54.50455
  44.27749,  52.45383
  44.29751,  48.37394
  44.31753,  45.78898
  44.33755,  51.13309
  44.35757,  52.39962
  44.37759,  53.63883
  44.39761,  60.63488
  44.41762,  53.14168
  44.43764,  53.99112
  44.45766,  63.53202
  44.47768,  64.78510
  44.49770,  69.79460
  44.51772,  76.51785
  44.53774,  95.67380
  44.55775, 101.41368
  44.57777, 122.90068
  44.59779, 138.45772
  44.61781, 170.43989
  44.63783, 204.94006
  44.65785, 230.33883
  44.67787, 261.25698
  44.69789, 295.48114
  44.71791, 311.32023
  44.73792, 334.52433
  44.75794, 354.18382
  44.77796, 386.06109
  44.79798, 399.08399
  44.81800, 400.40450
  44.83802, 397.56813
  44.85804, 397.75135
  44.87806, 381.36033
  44.89807, 365.95036
  44.91809, 330.59866
  44.93811, 304.37626
  44.95813, 286.67893
  44.97815, 266.93630
  44.99817, 230.78912
  45.01819, 199.66671
  45.03821, 171.15894
  45.05823, 142.09648
  45.07824, 134.46540
  45.09826, 116.46941
  45.11828, 101.24404
  45.13830,  91.30224
  45.15832,  72.22019
  45.17834,  68.18739
  45.19836,  57.96309
  45.21838,  54.78823
  45.23840,  55.83436
  45.25841,  47.87051
  45.27843,  48.88566
  45.29845,  40.53382
  45.31847,  43.16237
  45.33849,  47.83974
  45.35851,  46.90218
  45.37853,  46.17089
  45.39855,  45.72259
  45.41856,  37.19461
  45.43858,  42.14988
  45.45860,  46.53663
  45.47862,  39.14175
  45.49864,  41.94889
  45.51866,  41.60522
  45.53868,  45.11478
  45.55870,  40.62356
  45.57872,  40.64759
  45.59874,  41.83653
  45.61875,  38.46751
  45.63877,  32.78273
  45.65879,  39.71254
  45.67881,  41.34978
  45.69883,  39.09132
  45.71885,  38.24377
  45.73887,  45.20589
  45.75889,  40.95324
  45.77891,  36.50160
  45.79892,  37.76675
  45.81894,  40.29617
  45.83896,  42.47933
  45.85898,  39.68531
  45.87900,  40.13983
  45.89902,  41.09949
  45.91904,  37.31947
  45.93906,  38.49179
  45.95908,  36.68320
  45.97910,  37.99307
  45.99912,  39.40932
  46.01913,  41.49865
  46.03915,  41.21222
  46.05917,  41.07157
  46.07919,  39.63383
  46.09921,  37.43581
  46.11923,  37.66441
  46.13925,  38.76655
  46.15927,  39.58553
  46.17929,  31.37363
  46.19931,  35.85177
  46.21932,  37.93517
  46.23934,  35.25159
  46.25936,  36.72467
  46.27938,  34.95446
  46.29940,  38.45763
  46.31942,  39.33743
  46.33944,  34.84054
  46.35946,  36.63465
  46.37948,  37.67456
  46.39950,  34.98919
  46.41952,  37.08108
  46.43953,  38.66287
  46.45955,  39.66980
  46.47957,  39.08156
  46.49959,  39.17488
  46.51961,  37.75279
  46.53963,  38.32404
  46.55965,  39.10496
  46.57967,  37.70341
  46.59969,  36.23078
  46.61970,  37.98063
  46.63972,  38.71121
  46.65974,  33.79808
  46.67976,  35.40648
  46.69978,  35.76032
  46.71980,  39.69999
  46.73982,  35.93999
  46.75984,  34.66911
  46.77986,  32.64551
  46.79988,  35.71501
  46.81990,  34.20526
  46.83992,  36.91042
  46.85994,  34.11608
  46.87995,  35.83321
  46.89997,  37.88590
  46.91999,  35.01491
  46.94001,  36.32007
  46.96003,  35.86251
  46.98005,  36.33618
  47.00007,  35.89072
  47.02009,  39.46952
  47.04011,  38.88816
  47.06013,  38.18598
  47.08015,  39.53099
  47.10016,  39.23484
  47.12018,  37.11848
  47.14020,  33.49472
  47.16022,  35.54074
  47.18024,  34.28782
  47.20026,  33.10880
  47.22028,  32.08450
  47.24030,  32.85141
  47.26032,  35.37369
  47.28034,  37.04323
  47.30036,  36.41657
  47.32037,  35.52820
  47.34039,  35.38507
  47.36041,  41.04743
  47.38043,  34.69552
  47.40045,  34.79695
  47.42047,  35.81394
  47.44049,  37.20489
  47.46051,  39.40627
  47.48053,  34.17572
  47.50055,  33.66228
  47.52057,  37.34881
  47.54059,  33.65744
  47.56061,  37.13272
  47.58062,  35.70703
  47.60064,  37.49402
  47.62066,  37.49872
  47.64068,  36.69137
  47.66070,  36.02385
  47.68072,  32.88735
  47.70074,  34.92225
  47.72076,  36.15357
  47.74078,  34.59709
  47.76080,  32.66230
  47.78082,  37.21170
  47.80084,  37.95758
  47.82086,  40.96866
  47.84088,  43.65826
  47.86089,  37.84708
  47.88091,  36.33893
  47.90093,  36.24119
  47.92095,  37.75820
  47.94097,  35.75875
  47.96099,  34.45393
  47.98101,  32.65232
  48.00103,  37.03988
  48.02105,  36.09202
  48.04107,  37.09578
  48.06109,  35.54637
  48.08111,  34.31256
  48.10113,  38.14316
  48.12114,  35.76019
  48.14116,  35.10434
  48.16118,  32.52390
  48.18120,  33.63569
  48.20122,  33.53216
  48.22124,  35.65575
  48.24126,  33.82181
  48.26128,  35.36653
  48.28130,  39.72198
  48.30132,  32.85231
  48.32134,  35.36169
  48.34136,  33.60747
  48.36138,  30.66247
  48.38140,  31.53914
  48.40142,  36.27480
  48.42143,  32.25518
  48.44145,  35.25602
  48.46147,  35.81003
  48.48149,  33.42335
  48.50151,  33.22838
  48.52153,  33.22007
  48.54155,  33.97707
  48.56157,  38.10213
  48.58159,  31.98248
  48.60161,  34.51416
  48.62163,  37.77726
  48.64165,  33.99224
  48.66167,  35.22230
  48.68169,  35.51776
  48.70171,  35.05007
  48.72173,  35.89436
  48.74175,  36.36102
  48.76176,  36.59844
  48.78178,  35.72992
  48.80180,  35.87993
  48.82182,  35.34573
  48.84184,  29.11305
  48.86186,  34.23536
  48.88188,  34.48089
  48.90190,  34.47643
  48.92192,  35.50147
  48.94194,  35.25111
  48.96196,  34.24370
  48.98198,  39.34880
  49.00200,  36.44983
  49.02202,  33.20878
  49.04204,  31.83607
  49.06206,  32.51648
  49.08208,  33.64238
  49.10209,  36.40731
  49.12211,  35.57561
  49.14213,  35.77439
  49.16215,  30.00104
  49.18217,  36.90885
  49.20219,  33.49329
  49.22221,  31.54286
  49.24223,  31.72252
  49.26225,  31.84836
  49.28227,  36.83249
  49.30229,  36.65192
  49.32231,  35.71727
  49.34233,  34.09651
  49.36235,  33.46507
  49.38237,  31.16120
  49.40239,  35.64857
  49.42241,  38.66052
  49.44243,  31.01914
  49.46245,  36.70416
  49.48246,  36.24299
  49.50249,  32.19088
  49.52250,  34.72444
  49.54252,  35.51443
  49.56254,  35.13613
  49.58256,  32.13504
  49.60258,  33.27665
  49.62260,  34.13275
  49.64262,  35.34172
  49.66264,  35.58734
  49.68266,  33.43837
  49.70268,  35.85119
  49.72270,  33.41576
  49.74272,  36.61918
  49.76274,  36.57093
  49.78276,  30.40562
  49.80278,  36.15087
  49.82280,  34.07360
  49.84282,  34.69391
  49.86284,  35.30943
  49.88286,  36.18261
  49.90288,  33.98872
  49.92289,  33.79181
  49.94291,  29.45084
  49.96293,  31.93594
  49.98295,  33.38529
  50.00297,  31.55683
  50.02299,  32.91121
  50.04301,  34.90185
  50.06303,  32.63329
  50.08305,  36.72542
  50.10307,  37.62387
  50.12309,  34.05234
  50.14311,  38.10995
  50.16313,  31.60250
  50.18315,  28.97728
  50.20317,  33.30593
  50.22319,  38.13206
  50.24321,  40.34786
  50.26323,  36.16572
  50.28325,  35.98153
  50.30327,  38.45123
  50.32329,  41.52722
  50.34331,  37.27930
  50.36333,  37.21272
  50.38335,  37.82239
  50.40337,  38.76665
  50.42339,  37.98431
  50.44341,  38.44558
  50.46343,  40.72156
  50.48344,  40.37601
  50.50346,  43.40608
  50.52348,  45.50711
  50.54350,  43.34167
  50.56352,  48.97252
  50.58354,  48.96915
  50.60356,  53.81760
  50.62358,  48.95394
  50.64360,  57.55321
  50.66362,  61.20552
  50.68364,  65.99773
  50.70366,  72.04660
  50.72368,  88.17526
  50.74370,  94.94758
  50.76372, 104.51094
  50.78374, 123.84036
  50.80376, 140.40534
  50.82378, 156.66090
  50.84380, 169.48950
  50.86382, 181.68566
  50.88384, 188.01795
  50.90386, 183.67612
  50.92388, 194.79082
  50.94390, 184.29502
  50.96392, 184.75664
  50.98394, 191.94388
  51.00396, 172.55058
  51.02398, 161.33702
  51.04400, 155.95478
  51.06402, 149.64229
  51.08404, 139.41473
  51.10406, 125.52605
  51.12408, 108.64079
  51.14410, 105.28557
  51.16411,  98.11510
  51.18414,  83.05834
  51.20415,  79.36617
  51.22418,  71.86198
  51.24419,  60.59639
  51.26421,  63.18148
  51.28423,  55.70647
  51.30425,  49.07903
  51.32427,  44.42208
  51.34429,  42.74164
  51.36431,  42.33554
  51.38433,  42.03062
  51.40435,  37.19511
  51.42437,  36.95902
  51.44439,  42.23564
  51.46441,  36.58002
  51.48443,  35.40328
  51.50445,  35.71353
  51.52447,  40.94977
  51.54449,  37.35816
  51.56451,  34.85598
  51.58453,  34.68959
  51.60455,  37.00698
  51.62457,  31.86758
  51.64459,  31.74240
  51.66461,  33.96447
  51.68463,  35.91835
  51.70465,  33.33702
  51.72467,  33.08876
  51.74469,  29.98338
  51.76471,  32.22224
  51.78473,  31.81186
  51.80475,  29.85993
  51.82477,  31.84274
  51.84479,  35.02231
  51.86481,  28.62732
  51.88483,  30.37171
  51.90485,  30.07123
  51.92487,  30.68449
  51.94489,  30.12575
  51.96491,  33.11040
  51.98493,  30.66832
  52.00495,  32.29560
  52.02497,  30.21149
  52.04499,  27.74321
  52.06501,  33.18974
  52.08503,  29.32691
  52.10505,  29.85036
  52.12507,  30.38428
  52.14509,  30.71178
  52.16511,  32.20867
  52.18513,  29.73786
  52.20515,  32.82863
  52.22517,  30.93222
  52.24519,  31.00713
  52.26521,  32.06055
  52.28523,  34.55885
  52.30525,  32.95599
  52.32527,  30.90270
  52.34529,  30.16198
  52.36531,  31.42267
  52.38533,  29.65034
  52.40535,  29.34014
  52.42537,  34.73273
  52.44539,  33.08187
  52.46541,  29.35366
  52.48543,  31.68139
  52.50545,  30.92929
  52.52547,  32.37226
  52.54549,  30.96589
  52.56551,  31.76371
  52.58553,  30.24449
  52.60555,  31.36215
  52.62557,  32.09420
  52.64559,  30.84715
  52.66561,  28.84408
  52.68563,  31.86773
  52.70565,  32.84862
  52.72567,  34.98318
  52.74569,  32.91582
  52.76571,  30.04426
  52.78573,  30.47760
  52.80575,  28.40922
  52.82577,  31.23222
  52.84579,  28.62037
  52.86581,  30.23680
  52.88583,  31.78940
  52.90585,  30.28382
  52.92587,  29.49138
  52.94589,  26.34613
  52.96591,  27.63271
  52.98593,  31.07092
  53.00595,  31.54460
  53.02597,  34.24714
  53.04599,  27.30578
  53.06601,  31.86186
  53.08603,  27.89094
  53.10605,  28.94411
  53.12607,  30.55031
  53.14609,  32.63490
  53.16611,  29.17992
  53.18613,  28.99014
  53.20615,  28.80262
  53.22617,  32.36910
  53.24619,  32.74997
  53.26621,  32.25021
  53.28623,  32.91539
  53.30625,  30.67208
  53.32627,  30.29018
  53.34629,  29.02380
  53.36631,  28.83941
  53.38633,  25.80228
  53.40635,  29.70080
  53.42637,  32.50542
  53.44639,  30.33725
  53.46641,  30.60135
  53.48643,  30.99165
  53.50645,  28.62477
  53.52647,  27.54514
  53.54649,  33.25220
  53.56651,  29.61139
  53.58653,  27.77654
  53.60655,  27.96747
  53.62657,  32.04686
  53.64660,  26.65794
  53.66661,  29.84820
  53.68664,  30.50719
  53.70666,  30.80072
  53.72668,  30.56498
  53.74670,  29.25243
  53.76672,  30.43677
  53.78674,  28.40587
  53.80676,  32.26490
  53.82678,  31.70159
  53.84680,  29.82296
  53.86682,  30.09720
  53.88684,  29.73109
  53.90686,  29.72381
  53.92688,  29.86152
  53.94690,  29.90428
  53.96692,  27.91628
  53.98694,  31.57546
  54.00696,  28.72685
  54.02698,  27.13432
  54.04700,  26.68582
  54.06702,  28.70230
  54.08704,  30.66918
  54.10706,  28.88700
  54.12708,  25.95187
  54.14710,  29.34875
  54.16712,  26.93678
  54.18714,  25.88938
  54.20716,  28.67835
  54.22718,  26.32306
  54.24720,  27.45245
  54.26722,  28.38931
  54.28724,  28.98494
  54.30726,  29.72816
  54.32728,  28.63841
  54.34730,  31.12640
  54.36732,  26.28695
  54.38735,  26.82268
  54.40737,  33.15058
  54.42739,  25.64510
  54.44741,  27.31062
  54.46743,  26.28711
  54.48745,  27.03203
  54.50747,  28.21935
  54.52749,  28.18436
  54.54751,  30.37292
  54.56753,  30.40175
  54.58755,  29.00795
  54.60757,  30.97357
  54.62759,  28.08550
  54.64761,  27.84539
  54.66763,  28.71979
  54.68765,  27.83740
  54.70767,  26.44402
  54.72769,  28.97732
  54.74771,  28.23306
  54.76773,  30.73319
  54.78775,  28.73927
  54.80777,  26.79788
  54.82779,  30.18473
  54.84781,  27.95228
  54.86783,  26.21853
  54.88786,  29.23133
  54.90788,  27.25660
  54.92790,  29.38501
  54.94792,  27.39678
  54.96794,  28.05599
  54.98796,  28.86416
  55.00798,  26.90530
  55.02800,  28.73765
  55.04802,  25.38012
  55.06804,  29.24219
  55.08806,  26.90483
  55.10808,  26.32017
  55.12810,  26.37658
  55.14812,  30.61561
  55.16814,  27.95005
  55.18816,  26.40158
  55.20818,  26.47250
  55.22820,  28.83591
  55.24822,  27.27135
  55.26824,  26.64162
  55.28826,  28.77674
  55.30828,  26.59277
  55.32831,  29.54492
  55.34833,  24.85426
  55.36835,  27.75217
  55.38837,  30.32471
  55.40839,  31.15382
  55.42841,  30.00953
  55.44843,  29.12603
  55.46845,  27.53965
  55.48847,  27.81666
  55.50849,  23.50563
  55.52851,  25.41212
  55.54853,  26.81297
  55.56855,  31.46611
  55.58857,  25.56748
  55.60859,  29.60109
  55.62861,  28.64751
  55.64863,  30.22837
  55.66866,  32.62456
  55.68867,  31.05461
  55.70870,  29.17190
  55.72872,  31.81576
  55.74874,  31.86405
  55.76876,  29.00445
  55.78878,  27.62592
  55.80880,  29.53159
  55.82882,  27.39516
  55.84884,  25.87053
  55.86886,  27.48649
  55.88888,  25.84176
  55.90890,  26.28635
  55.92892,  28.55496
  55.94894,  29.80108
  55.96896,  29.73456
  55.98898,  26.79356
  56.00901,  31.13388
  56.02903,  31.16181
  56.04905,  28.71668
  56.06907,  28.43187
  56.08909,  26.09287
  56.10911,  31.33655
  56.12913,  27.69181
  56.14915,  27.11884
  56.16917,  25.93525
  56.18919,  24.69745
  56.20921,  29.38633
  56.22923,  29.53144
  56.24925,  27.88937
  56.26927,  29.88233
  56.28929,  25.56426
  56.30932,  30.96276
  56.32934,  27.73592
  56.34936,  27.01716
  56.36938,  30.33733
  56.38940,  28.51955
  56.40942,  26.14245
  56.42944,  28.01940
  56.44946,  27.52776
  56.46948,  27.38417
  56.48950,  26.40213
  56.50952,  27.41780
  56.52954,  26.83010
  56.54956,  27.73575
  56.56959,  28.47792
  56.58961,  28.87597
  56.60963,  25.94274
  56.62965,  27.66145
  56.64967,  30.07304
  56.66969,  27.43428
  56.68971,  25.73976
  56.70973,  29.69269
  56.72975,  26.56561
  56.74977,  25.59968
  56.76979,  29.46347
  56.78981,  29.20988
  56.80983,  24.63087
  56.82986,  24.17876
  56.84988,  28.15737
  56.86990,  29.55699
  56.88992,  25.11669
  56.90994,  27.38237
  56.92996,  30.27529
  56.94998,  29.15286
  56.97000,  31.47992
  56.99002,  26.01936
  57.01004,  24.58883
  57.03006,  25.10286
  57.05008,  24.70749
  57.07010,  26.69331
  57.09013,  27.96442
  57.11015,  27.12309
  57.13017,  26.76632
  57.15019,  25.02199
  57.17021,  31.75292
  57.19023,  26.73368
  57.21025,  26.89690
  57.23027,  27.25362
  57.25029,  27.30692
  57.27031,  27.18923
  57.29034,  28.32419
  57.31036,  30.56882
  57.33038,  27.63253
  57.35040,  30.93347
  57.37042,  26.17290
  57.39044,  24.84019
  57.41046,  25.31821
  57.43048,  25.55192
  57.45050,  31.03460
  57.47052,  24.82791
  57.49054,  22.67316
  57.51056,  27.13644
  57.53059,  26.99384
  57.55061,  28.31496
  57.57063,  29.08014
  57.59065,  28.98419
  57.61067,  24.93824
  57.63069,  26.39653
  57.65071,  28.10275
  57.67073,  26.51763
  57.69075,  23.62572
  57.71078,  27.25365
  57.73080,  26.26150
  57.75082,  26.03833
  57.77084,  28.88526
  57.79086,  27.91825
  57.81088,  25.67167
  57.83090,  25.82469
  57.85092,  25.53808
  57.87094,  27.31029
  57.89096,  24.78077
  57.91099,  24.89765
  57.93101,  27.04037
  57.95103,  24.98454
  57.97105,  26.45999
  57.99107,  25.69708
  58.01109,  25.32208
  58.03111,  26.72548
  58.05113,  31.37044
  58.07115,  29.79078
  58.09117,  28.51485
  58.11119,  27.67386
  58.13122,  28.43584
  58.15124,  29.38877
  58.17126,  30.50688
  58.19128,  26.12030
  58.21130,  23.73351
  58.23132,  24.51155
  58.25134,  25.58904
  58.27136,  24.84534
  58.29138,  29.41288
  58.31141,  27.88966
  58.33143,  27.28074
  58.35145,  27.95928
  58.37147,  27.56640
  58.39149,  27.11311
  58.41151,  24.91966
  58.43153,  24.73373
  58.45155,  23.40474
  58.47158,  25.33415
  58.49160,  28.58560
  58.51162,  27.77982
  58.53164,  26.92695
  58.55166,  28.66193
  58.57168,  25.80146
  58.59170,  24.82052
  58.61172,  24.92880
  58.63174,  27.46001
  58.65176,  25.29251
  58.67179,  24.18676
  58.69181,  25.75536
  58.71183,  25.75571
  58.73185,  23.00574
  58.75187,  22.86108
  58.77189,  24.25269
  58.79191,  27.50926
  58.81194,  25.38576
  58.83196,  27.34028
  58.85198,  25.64958
  58.87200,  25.04004
  58.89202,  26.28695
  58.91204,  25.24639
  58.93206,  27.81000
  58.95208,  26.52033
  58.97210,  29.13967
  58.99213,  26.74445
  59.01215,  25.47631
  59.03217,  26.54397
  59.05219,  27.41142
  59.07221,  27.34738
  59.09223,  25.30177
  59.11225,  24.17286
  59.13227,  24.94357
  59.15230,  27.82536
  59.17232,  26.09914
  59.19234,  26.04374
  59.21236,  23.48713
  59.23238,  24.49650
  59.25240,  23.30075
  59.27242,  25.92824
  59.29244,  29.15549
  59.31247,  26.28819
  59.33249,  27.06516
  59.35251,  27.54134
  59.37253,  25.03498
  59.39255,  26.01798
  59.41257,  26.38591
  59.43259,  25.39295
  59.45262,  23.33905
  59.47264,  22.97046
  59.49266,  26.64942
  59.51268,  25.99044
  59.53270,  26.10947
  59.55272,  23.70814
  59.57274,  27.76675
  59.59277,  26.35627
  59.61279,  27.03971
  59.63281,  24.82732
  59.65283,  27.09514
  59.67285,  25.88510
  59.69287,  24.19031
  59.71289,  23.31094
  59.73291,  25.26544
  59.75294,  27.08829
  59.77296,  25.34869
  59.79298,  21.09970
  59.81300,  23.97703
  59.83302,  27.62557
  59.85304,  25.91935
  59.87307,  22.94565
  59.89309,  26.51288
  59.91311,  25.13577
  59.93313,  24.83601
  59.95315,  24.86898
  59.97317,  25.35619
  59.99319,  25.35261
  60.01321,  21.00272
  60.03324,  27.71384
  60.05326,  26.19742
  60.07328,  26.75962
  60.09330,  27.41158
  60.11332,  24.84929
  60.13334,  24.45087
  60.15336,  24.75845
  60.17339,  25.42823
  60.19341,  26.03458
  60.21343,  22.81182
  60.23345,  27.07822
  60.25347,  28.86290
  60.27349,  25.21753
  60.29352,  25.39554
  60.31354,  25.60415
  60.33356,  24.57818
  60.35358,  22.18484
  60.37360,  22.24713
  60.39362,  24.27495
  60.41364,  25.22203
  60.43367,  26.17595
  60.45369,  24.72998
  60.47371,  25.41943
  60.49373,  26.58437
  60.51375,  24.74924
  60.53377,  25.07918
  60.55380,  23.99029
  60.57382,  24.12343
  60.59384,  23.15409
  60.61386,  24.31220
  60.63388,  26.62703
  60.65390,  24.53800
  60.67393,  29.08748
  60.69395,  27.03113
  60.71397,  25.82950
  60.73399,  24.60448
  60.75401,  26.65051
  60.77403,  22.94150
  60.79405,  27.29319
  60.81408,  26.66560
  60.83410,  25.79653
  60.85412,  23.94607
  60.87414,  23.37873
  60.89416,  24.83324
  60.91419,  24.79679
  60.93421,  23.65521
  60.95423,  23.55920
  60.97425,  26.70048
  60.99427,  24.98367
  61.01429,  26.88214
  61.03431,  25.21874
  61.05434,  23.29626
  61.07436,  23.16119
  61.09438,  25.11156
  61.11440,  24.74266
  61.13442,  24.49433
  61.15445,  23.13229
  61.17447,  22.24312
  61.19449,  23.90404
  61.21451,  23.34214
  61.23453,  24.59887
  61.25455,  24.35214
  61.27458,  25.95794
  61.29460,  27.22874
  61.31462,  28.16296
  61.33464,  25.14177
  61.35466,  25.66960
  61.37468,  22.42051
  61.39471,  24.07001
  61.41473,  27.35268
  61.43475,  27.01317
  61.45477,  24.35216
  61.47479,  25.18850
  61.49482,  20.69562
  61.51484,  22.83979
  61.53486,  27.49785
  61.55488,  26.71156
  61.57490,  22.84888
  61.59492,  23.24336
  61.61495,  22.51137
  61.63497,  22.34509
  61.65499,  25.11688
  61.67501,  23.43454
  61.69503,  22.49977
  61.71506,  25.64255
  61.73508,  23.16062
  61.75510,  24.66470
  61.77512,  27.98474
  61.79514,  24.52443
  61.81516,  24.46925
  61.83519,  25.47660
  61.85521,  25.44915
  61.87523,  27.61987
  61.89525,  24.44795
  61.91527,  22.34713
  61.93530,  25.05623
  61.95532,  22.48036
  61.97534,  24.52803
  61.99536,  24.75542
  62.01538,  27.67540
  62.03541,  23.06363
  62.05543,  21.60979
  62.07545,  25.41792
  62.09547,  26.12334
  62.11549,  24.05345
  62.13551,  24.58840
  62.15554,  26.77244
  62.17556,  27.40323
  62.19558,  25.76478
  62.21560,  25.68875
  62.23562,  25.48966
  62.25565,  21.35488
  62.27567,  24.03218
  62.29569,  22.51991
  62.31571,  23.39561
  62.33573,  24.45788
  62.35576,  20.93639
  62.37578,  25.64431
  62.39580,  26.55023
  62.41582,  22.67391
  62.43585,  24.32145
  62.45587,  25.30535
  62.47589,  25.41148
  62.49591,  25.06119
  62.51593,  22.46244
  62.53595,  23.27944
  62.55598,  22.98491
  62.57600,  27.21139
  62.59602,  24.67890
  62.61604,  27.09658
  62.63606,  23.80135
  62.65609,  25.73383
  62.67611,  24.96031
  62.69613,  28.18126
  62.71615,  27.36476
  62.73617,  28.29031
  62.75620,  26.09466
  62.77622,  25.23562
  62.79624,  24.43666
  62.81626,  21.76050
  62.83629,  22.74488
  62.85631,  24.08171
  62.87633,  24.80844
  62.89635,  24.65213
  62.91637,  23.11156
  62.93640,  23.13336
  62.95642,  23.56498
  62.97644,  23.05177
  62.99646,  22.19694
  63.01648,  28.10283
  63.03651,  23.30664
  63.05653,  24.16502
  63.07655,  25.41819
  63.09657,  25.81366
  63.11660,  23.01273
  63.13662,  24.18916
  63.15664,  23.85797
  63.17666,  22.09616
  63.19668,  23.94754
  63.21671,  22.88713
  63.23673,  25.49652
  63.25675,  26.28230
  63.27677,  23.72472
  63.29679,  21.94030
  63.31682,  22.52834
  63.33684,  24.51956
  63.35686,  21.96670
  63.37688,  26.31745
  63.39691,  27.25868
  63.41693,  25.91040
  63.43695,  24.18824
  63.45697,  21.29783
  63.47700,  24.18050
  63.49702,  25.40901
  63.51704,  26.50198
  63.53706,  26.61393
  63.55708,  24.55153
  63.57711,  24.52317
  63.59713,  24.18959
  63.61715,  21.72975
  63.63717,  21.04246
  63.65720,  23.27212
  63.67722,  22.69292
  63.69724,  23.49558
  63.71726,  20.27972
  63.73729,  24.71051
  63.75731,  22.68808
  63.77733,  24.89729
  63.79735,  23.93629
  63.81737,  23.93928
  63.83740,  22.79816
  63.85742,  19.81261
  63.87744,  20.71130
  63.89746,  26.63896
  63.91749,  27.04493
  63.93751,  26.33005
  63.95753,  26.59713
  63.97755,  24.52653
  63.99758,  23.26429
  64.01760,  23.39009
  64.03762,  25.01781
  64.05764,  21.28504
  64.07767,  22.36823
  64.09769,  21.69117
  64.11771,  23.58132
  64.13773,  24.32470
  64.15775,  24.39004
  64.17778,  21.42139
  64.19780,  23.76658
  64.21782,  23.69986
  64.23785,  25.14989
  64.25787,  22.84825
  64.27789,  23.61168
  64.29791,  23.70193
  64.31793,  22.51437
  64.33796,  23.81089
  64.35798,  24.42582
  64.37800,  23.19908
  64.39802,  26.08742
  64.41805,  24.11956
  64.43807,  27.59217
  64.45809,  25.46265
  64.47811,  22.37548
  64.49814,  24.17569
  64.51816,  27.70361
  64.53818,  24.37643
  64.55820,  28.33249
  64.57823,  23.61137
  64.59825,  21.65746
  64.61827,  26.31194
  64.63829,  26.45725
  64.65832,  29.04358
  64.67834,  24.17307
  64.69836,  23.23892
  64.71839,  26.16977
  64.73841,  23.36042
  64.75843,  28.39481
  64.77845,  27.27428
  64.79848,  25.94655
  64.81850,  29.80553
  64.83852,  27.35212
  64.85854,  31.39729
  64.87856,  29.67600
  64.89859,  28.89366
  64.91861,  34.58445
  64.93863,  34.17440
  64.95866,  38.74895
  64.97868,  39.58258
  64.99870,  42.60624
  65.01872,  47.09679
  65.03875,  47.18985
  65.05877,  51.79375
  65.07879,  55.41021
  65.09881,  48.61597
  65.11884,  53.88260
  65.13886,  52.39122
  65.15888,  52.92374
  65.17890,  57.51739
  65.19893,  56.98016
  65.21895,  49.49025
  65.23897,  48.18015
  65.25900,  49.46020
  65.27902,  49.45822
  65.29904,  41.17569
  65.31906,  42.82522
  65.33909,  40.40130
  65.35911,  36.51595
  65.37913,  40.18540
  65.39916,  36.32162
  65.41918,  37.61622
  65.43920,  31.71147
  65.45922,  33.35452
  65.47925,  31.28964
  65.49927,  28.20205
  65.51929,  28.86838
  65.53931,  28.43973
  65.55934,  27.42154
  65.57936,  23.18288
  65.59938,  21.58114
  65.61941,  22.67953
  65.63943,  24.94101
  65.65945,  25.32852
  65.67947,  24.23255
  65.69950,  25.83779
  65.71952,  23.51253
  65.73954,  25.19465
  65.75956,  22.37552
  65.77959,  22.76606
  65.79961,  23.76644
  65.81963,  24.73499
  65.83966,  21.83657
  65.85968,  23.16507
  65.87970,  23.13139
  65.89972,  24.88503
  65.91975,  21.20168
  65.93977,  22.79008
  65.95979,  23.07829
  65.97982,  24.19480
  65.99984,  20.97907
  66.01986,  20.44439
  66.03988,  22.14452
  66.05991,  24.63355
  66.07993,  25.30532
  66.09995,  23.45944
  66.11998,  25.29263
  66.14000,  22.40766
  66.16002,  22.24958
  66.18004,  23.81482
  66.20007,  26.00769
  66.22009,  23.05998
  66.24011,  24.82373
  66.26014,  20.78223
  66.28016,  25.91825
  66.30018,  24.62996
  66.32021,  22.43882
  66.34023,  20.87335
  66.36025,  22.64913
  66.38027,  24.12044
  66.40030,  22.89763
  66.42032,  22.17253
  66.44034,  22.30496
  66.46037,  23.06571
  66.48039,  19.45465
  66.50041,  22.19791
  66.52044,  24.60022
  66.54046,  21.64477
  66.56048,  21.88214
  66.58051,  23.26752
  66.60053,  20.57487
  66.62055,  22.24950
  66.64057,  23.15392
  66.66060,  22.09274
  66.68062,  25.17451
  66.70064,  23.00352
  66.72067,  23.00835
  66.74069,  23.48944
  66.76071,  23.94969
  66.78074,  23.41609
  66.80076,  21.52772
  66.82078,  24.59159
  66.84080,  23.62559
  66.86083,  21.66199
  66.88085,  21.69490
  66.90087,  20.09160
  66.92090,  20.90654
  66.94092,  23.54648
  66.96094,  19.79696
  66.98097,  24.04573
  67.00099,  25.37224
  67.02101,  21.50956
  67.04103,  21.72697
  67.06106,  23.15230
  67.08108,  24.13199
  67.10111,  24.99104
  67.12113,  20.97657
  67.14115,  23.13775
  67.16118,  22.89865
  67.18120,  24.66091
  67.20122,  24.24091
  67.22124,  21.02365
  67.24127,  21.97356
  67.26129,  22.98536
  67.28131,  19.44478
  67.30134,  21.99412
  67.32136,  26.60987
  67.34138,  26.76972
  67.36141,  22.92743
  67.38143,  23.83708
  67.40145,  26.06526
  67.42148,  24.12862
  67.44150,  25.75789
  67.46152,  24.48373
  67.48155,  22.27124
  67.50157,  20.38992
  67.52159,  23.30625
  67.54162,  21.36358
  67.56164,  22.35328
  67.58166,  22.63851
  67.60169,  18.94120
  67.62171,  20.14619
  67.64173,  17.75632
  67.66176,  20.40521
  67.68178,  22.14737
  67.70180,  21.87180
  67.72183,  24.44764
  67.74185,  23.53093
  67.76187,  22.81849
  67.78190,  23.88563
  67.80192,  24.20007
  67.82194,  22.85028
  67.84197,  20.79057
  67.86199,  23.23119
  67.88201,  22.68836
  67.90204,  23.34943
  67.92206,  21.62501
  67.94208,  21.70643
  67.96211,  21.84541
  67.98213,  24.23924
  68.00215,  24.45523
  68.02218,  22.90806
  68.04220,  25.42129
  68.06222,  19.69618
  68.08225,  20.33877
  68.10227,  23.00298
  68.12229,  23.30038
  68.14232,  19.26404
  68.16234,  21.56338
  68.18236,  23.23591
  68.20239,  23.67435
  68.22241,  22.05936
  68.24243,  21.21029
  68.26246,  23.36902
  68.28248,  21.75764
  68.30251,  22.93473
  68.32253,  23.87992
  68.34255,  23.36779
  68.36258,  23.49254
  68.38260,  21.52948
  68.40262,  22.61210
  68.42265,  21.85575
  68.44267,  23.52133
  68.46269,  23.68639
  68.48272,  24.16077
  68.50274,  19.42985
  68.52276,  21.33208
  68.54279,  25.47720
  68.56281,  21.21558
  68.58283,  21.00595
  68.60286,  24.38717
  68.62288,  21.16590
  68.64290,  23.97315
  68.66293,  22.10343
  68.68295,  20.89649
  68.70298,  20.63694
  68.72300,  24.06013
  68.74302,  20.62793
  68.76305,  19.18448
  68.78307,  19.58415
  68.80309,  22.15967
  68.82312,  21.60871
  68.84314,  22.63776
  68.86316,  22.91937
  68.88319,  23.81725
  68.90321,  22.71010
  68.92324,  23.51871
  68.94326,  23.61535
  68.96328,  25.98896
  68.98331,  23.39602
  69.00333,  19.17412
  69.02335,  19.52378
  69.04338,  22.36389
  69.06340,  23.54695
  69.08343,  23.38186
  69.10345,  23.23286
  69.12347,  22.08869
  69.14350,  21.39066
  69.16352,  20.52875
  69.18355,  22.72042
  69.20357,  22.24995
  69.22359,  22.11762
  69.24362,  19.50340
  69.26364,  18.10847
  69.28366,  22.22321
  69.30369,  20.98132
  69.32371,  21.87534
  69.34373,  20.65258
  69.36376,  21.19016
  69.38378,  22.45992
  69.40381,  22.97976
  69.42383,  22.04823
  69.44385,  20.38623
  69.46388,  21.24076
  69.48390,  21.96730
  69.50393,  23.00920
  69.52395,  20.89506
  69.54397,  20.56940
  69.56400,  21.84993
  69.58402,  20.84757
  69.60405,  21.57636
  69.62407,  22.47819
  69.64409,  24.61718
  69.66412,  22.70099
  69.68414,  20.29925
  69.70416,  19.22060
  69.72419,  21.22294
  69.74421,  23.62226
  69.76424,  23.13292
  69.78426,  23.11661
  69.80428,  22.01454
  69.82431,  22.06570
  69.84433,  21.49236
  69.86436,  21.63991
  69.88438,  22.75157
  69.90440,  21.51730
  69.92443,  21.24767
  69.94445,  22.05145
  69.96448,  20.85632
  69.98450,  20.27951
  70.00452,  23.37346
  70.02455,  22.82899
  70.04457,  22.54264
  70.06460,  24.66211
  70.08462,  24.43875
  70.10464,  23.07471
  70.12467,  22.48981
  70.14469,  23.07964
  70.16472,  26.29781
  70.18474,  20.16858
  70.20476,  20.73619
  70.22479,  21.15972
  70.24481,  20.78661
  70.26484,  22.68819
  70.28486,  22.24062
  70.30488,  24.43237
  70.32491,  20.59703
  70.34493,  22.05525
  70.36496,  21.63642
  70.38498,  24.08570
  70.40500,  21.47223
  70.42503,  24.10246
  70.44505,  19.94155
  70.46508,  21.98580
  70.48510,  20.88479
  70.50513,  21.98229
  70.52515,  22.40288
  70.54517,  23.48069
  70.56520,  22.44265
  70.58522,  22.44304
  70.60525,  22.48890
  70.62527,  25.03740
  70.64529,  21.62143
  70.66532,  23.08699
  70.68534,  21.43224
  70.70537,  21.51214
  70.72539,  24.39591
  70.74542,  22.11757
  70.76544,  24.17649
  70.78546,  20.66992
  70.80549,  21.89342
  70.82551,  20.61172
  70.84554,  18.18815
  70.86556,  19.63148
  70.88558,  22.08080
  70.90561,  19.07549
  70.92563,  23.06448
  70.94566,  23.86459
  70.96568,  21.48008
  70.98571,  21.89102
  71.00573,  21.54960
  71.02575,  22.30093
  71.04578,  23.79189
  71.06580,  25.62871
  71.08583,  23.58948
  71.10585,  22.59800
  71.12588,  22.15915
  71.14590,  24.88977
  71.16592,  20.34578
  71.18595,  24.47615
  71.20597,  22.87601
  71.22600,  22.83584
  71.24602,  22.73680
  71.26605,  18.89114
  71.28607,  21.44201
  71.30609,  22.14405
  71.32612,  20.82502
  71.34614,  22.82932
  71.36617,  19.27576
  71.38619,  20.70427
  71.40622,  22.24582
  71.42624,  23.47482
  71.44627,  21.63176
  71.46629,  22.79645
  71.48631,  25.11284
  71.50634,  22.36801
  71.52636,  21.82839
  71.54639,  22.27178
  71.56641,  20.12188
  71.58644,  23.40514
  71.60646,  24.46274
  71.62649,  23.02464
  71.64651,  23.24276
  71.66653,  24.99375
  71.68656,  20.78455
  71.70658,  22.45265
  71.72661,  24.62795
  71.74663,  22.50790
  71.76666,  22.03235
  71.78668,  20.03915
  71.80671,  19.20585
  71.82673,  21.95336
  71.84675,  20.49150
  71.86678,  21.90659
  71.88680,  24.39750
  71.90683,  22.20707
  71.92685,  20.75353
  71.94688,  20.30433
  71.96690,  25.25944
  71.98693,  21.02273
  72.00695,  20.28875
  72.02698,  19.68798
  72.04700,  22.52090
  72.06703,  23.32410
  72.08705,  19.66652
  72.10707,  22.44778
  72.12710,  21.03565
  72.14712,  21.52239
  72.16715,  19.92932
  72.18717,  22.48911
  72.20720,  18.46210
  72.22722,  21.22981
  72.24725,  19.44367
  72.26727,  20.44764
  72.28730,  20.54463
  72.30732,  20.31846
  72.32735,  24.83680
  72.34737,  22.76729
  72.36740,  20.49478
  72.38742,  21.61986
  72.40745,  21.52612
  72.42747,  21.53299
  72.44749,  20.86319
  72.46752,  20.44110
  72.48754,  23.31817
  72.50757,  21.54177
  72.52759,  20.62983
  72.54762,  23.55622
  72.56764,  20.71673
  72.58767,  22.72403
  72.60769,  21.01907
  72.62772,  23.04505
  72.64774,  24.04155
  72.66777,  24.05064
  72.68779,  21.34641
  72.70782,  24.64846
  72.72784,  22.94551
  72.74787,  22.28130
  72.76789,  24.24769
  72.78792,  22.45016
  72.80794,  19.73785
  72.82797,  23.92229
  72.84799,  23.87133
  72.86802,  22.64047
  72.88804,  21.91371
  72.90806,  19.58506
  72.92809,  18.43976
  72.94812,  24.16460
  72.96814,  22.26860
  72.98816,  21.31392
  73.00819,  22.89326
  73.02821,  22.23962
  73.04824,  20.43573
  73.06826,  19.50782
  73.08829,  19.41580
  73.10831,  17.68550
  73.12834,  22.13259
  73.14836,  26.65958
  73.16839,  23.61160
  73.18841,  21.27452
  73.20844,  21.03753
  73.22846,  22.55124
  73.24849,  19.65807
  73.26851,  19.33288
  73.28854,  22.12714
  73.30856,  23.71807
  73.32859,  21.83050
  73.34861,  19.26796
  73.36864,  21.11931
  73.38866,  22.32335
  73.40869,  21.96029
  73.42871,  19.89633
  73.44874,  22.39285
  73.46876,  22.20909
  73.48879,  21.60420
  73.50881,  20.89005
  73.52884,  22.46699
  73.54886,  26.39233
  73.56889,  25.54149
  73.58891,  23.02865
  73.60894,  21.95215
  73.62896,  21.61376
  73.64899,  21.78705
  73.66902,  22.92837
  73.68904,  21.14140
  73.70907,  22.21639
  73.72909,  22.92654
  73.74912,  21.78297
  73.76914,  23.63649
  73.78917,  23.12391
  73.80919,  22.07599
  73.82922,  20.01480
  73.84924,  20.67750
  73.86927,  21.99589
  73.88929,  23.55078
  73.90932,  23.06887
  73.92934,  22.83940
  73.94937,  22.24635
  73.96939,  19.40065
  73.98942,  20.40028
  74.00944,  23.59772
  74.02947,  23.10177
  74.04949,  22.52457
  74.06952,  22.21927
  74.08954,  21.07270
  74.10957,  26.70093
  74.12959,  22.58946
  74.14962,  22.00113
  74.16964,  23.16112
  74.18967,  22.54602
  74.20970,  29.34467
  74.22972,  24.17856
  74.24975,  24.43949
  74.26977,  24.91930
  74.28980,  26.81444
  74.30982,  27.37442
  74.32985,  28.27307
  74.34987,  29.35890
  74.36990,  28.35291
  74.38992,  30.42313
  74.40995,  27.81444
  74.42998,  29.93509
  74.45000,  34.56342
  74.47003,  36.45550
  74.49005,  44.54894
  74.51008,  49.34241
  74.53010,  55.02247
  74.55013,  59.28115
  74.57015,  63.63243
  74.59018,  73.05058
  74.61020,  79.47721
  74.63023,  88.78927
  74.65025,  95.82495
  74.67028, 104.90148
  74.69031, 103.53113
  74.71033, 109.37263
  74.73036, 113.50259
  74.75038, 106.61610
  74.77041, 104.62967
  74.79043, 100.20024
  74.81046, 101.70170
  74.83048,  98.28669
  74.85051,  96.40477
  74.87053,  92.41130
  74.89056,  91.38486
  74.91059,  80.17387
  74.93061,  82.96037
  74.95064,  80.06023
  74.97066,  67.11991
  74.99069,  70.45248
  75.01071,  58.05050
  75.03074,  55.61513
  75.05076,  52.59911
  75.07079,  45.40786
  75.09082,  46.97564
  75.11084,  41.44630
  75.13087,  36.41186
  75.15089,  35.79496
  75.17092,  35.44277
  75.19094,  32.04234
  75.21097,  32.46960
  75.23100,  27.56819
  75.25102,  27.77585
  75.27105,  26.82742
  75.29107,  28.28921
  75.31110,  27.47301
  75.33112,  28.18286
  75.35115,  25.26293
  75.37118,  24.32420
  75.39120,  25.57278
  75.41123,  25.27615
  75.43125,  25.53016
  75.45128,  18.59214
  75.47130,  21.93520
  75.49133,  24.18193
  75.51135,  21.97610
  75.53138,  24.68074
  75.55141,  25.93940
  75.57143,  25.87513
  75.59146,  24.19439
  75.61148,  22.27109
  75.63151,  21.76151
  75.65153,  25.08979
  75.67156,  25.63412
  75.69159,  23.58112
  75.71161,  24.56899
  75.73164,  23.25841
  75.75166,  20.27172
  75.77169,  21.36517
  75.79172,  19.56692
  75.81174,  21.47296
  75.83177,  23.36921
  75.85179,  23.37026
  75.87182,  20.67358
  75.89185,  22.81036
  75.91187,  20.38331
  75.93190,  22.46032
  75.95192,  22.19662
  75.97195,  20.37163
  75.99197,  22.79401
  76.01200,  23.89180
  76.03203,  21.48757
  76.05205,  22.50777
  76.07208,  22.22033
  76.09210,  18.80752
  76.11213,  21.19329
  76.13216,  19.23095
  76.15218,  18.88501
  76.17221,  20.62401
  76.19223,  22.85783
  76.21226,  22.54344
  76.23229,  21.75169
  76.25231,  20.72097
  76.27234,  18.37261
  76.29236,  21.36252
  76.31239,  21.66327
  76.33242,  19.83798
  76.35244,  23.62064
  76.37247,  23.43986
  76.39250,  20.88102
  76.41252,  19.99632
  76.43255,  19.61507
  76.45257,  19.61725
  76.47260,  21.75164
  76.49263,  22.01011
  76.51265,  19.61388
  76.53268,  17.42491
  76.55270,  21.13511
  76.57273,  19.21772
  76.59276,  20.37327
  76.61278,  22.30570
  76.63281,  20.92044
  76.65283,  22.29597
  76.67286,  21.57968
  76.69289,  21.23887
  76.71291,  22.36274
  76.73294,  26.32936
  76.75297,  22.45278
  76.77299,  18.70915
  76.79302,  23.58882
  76.81304,  24.31211
  76.83307,  19.03731
  76.85310,  21.91119
  76.87312,  20.17417
  76.89315,  21.57700
  76.91318,  21.51338
  76.93320,  21.80719
  76.95323,  20.40448
  76.97325,  18.22578
  76.99328,  19.42821
  77.01331,  21.63543
  77.03333,  21.14803
  77.05336,  21.53721
  77.07339,  20.55896
  77.09341,  21.54969
  77.11344,  21.57062
  77.13346,  21.63715
  77.15349,  23.50947
  77.17352,  20.52824
  77.19354,  18.44152
  77.21357,  22.53975
  77.23360,  19.10156
  77.25362,  19.05091
  77.27365,  22.19952
  77.29367,  24.81856
  77.31370,  19.05470
  77.33373,  21.72792
  77.35375,  22.44996
  77.37378,  19.54570
  77.39381,  19.51811
  77.41383,  21.79767
  77.43386,  23.68849
  77.45389,  22.26470
  77.47391,  20.24425
  77.49394,  18.90721
  77.51397,  19.52407
  77.53399,  18.02821
  77.55402,  20.69750
  77.57405,  20.35410
  77.59407,  20.87148
  77.61410,  20.33132
  77.63412,  21.58843
  77.65415,  22.30194
  77.67418,  23.56934
  77.69420,  19.59857
  77.71423,  22.33433
  77.73426,  24.79257
  77.75428,  22.87506
  77.77431,  19.13820
  77.79434,  19.35457
  77.81436,  22.10240
  77.83439,  20.62103
  77.85442,  18.66389
  77.87444,  19.45716
  77.89447,  20.92833
  77.91450,  19.48330
  77.93452,  19.53935
  77.95455,  21.49366
  77.97458,  18.88692
  77.99460,  18.55800
  78.01463,  19.69095
  78.03466,  20.62450
  78.05468,  20.98952
  78.07471,  21.24902
  78.09474,  20.59110
  78.11476,  22.50807
  78.13479,  19.93238
  78.15482,  20.37550
  78.17484,  23.54243
  78.19487,  21.79580
  78.21490,  22.80821
  78.23492,  18.95770
  78.25495,  19.19912
  78.27498,  22.72687
  78.29500,  23.35336
  78.31503,  20.49326
  78.33506,  22.35242
  78.35508,  21.89577
  78.37511,  20.12826
  78.39514,  23.27815
  78.41516,  20.03880
  78.43519,  22.66971
  78.45522,  21.44704
  78.47524,  22.41385
  78.49527,  21.48787
  78.51530,  21.01698
  78.53532,  22.19574
  78.55535,  22.89138
  78.57538,  19.86515
  78.59541,  18.68748
  78.61543,  20.45759
  78.63546,  22.67278
  78.65549,  23.71982
  78.67551,  18.35560
  78.69554,  21.94177
  78.71557,  20.17979
  78.73559,  17.20218
  78.75562,  18.25073
  78.77565,  22.97944
  78.79568,  19.89380
  78.81570,  19.29979
  78.83573,  21.88441
  78.85576,  21.25992
  78.87578,  17.32509
  78.89581,  20.16884
  78.91584,  21.95182
  78.93586,  19.90718
  78.95589,  20.47955
  78.97592,  19.90349
  78.99595,  21.36598
  79.01597,  22.41165
  79.03600,  19.06581
  79.05603,  20.98750
  79.07605,  20.39511
  79.09608,  19.18957
  79.11611,  20.33200
  79.13613,  18.64716
  79.15616,  20.84440
  79.17619,  21.57774
  79.19622,  21.05700
  79.21624,  22.05168
  79.23627,  21.58202
  79.25630,  22.42266
  79.27632,  22.20041
  79.29635,  20.83949
  79.31638,  19.48170
  79.33640,  19.38997
  79.35643,  21.09154
  79.37646,  21.05652
  79.39649,  20.51273
  79.41651,  20.31098
  79.43654,  20.49049
  79.45657,  21.17150
  79.47660,  20.94353
  79.49662,  20.13972
  79.51665,  21.15273
  79.53668,  20.30916
  79.55670,  20.46258
  79.57673,  21.15235
  79.59676,  21.50221
  79.61679,  18.03153
  79.63681,  21.50768
  79.65684,  22.47550
  79.67687,  20.19263
  79.69689,  22.08070
  79.71692,  23.27014
  79.73695,  21.41791
  79.75698,  24.59070
  79.77700,  23.45320
  79.79703,  19.60030
  79.81706,  19.07486
  79.83709,  21.60593
  79.85711,  21.89665
  79.87714,  20.67945
  79.89717,  20.76732
  79.91720,  22.78888
  79.93722,  20.80419
  79.95725,  20.36513
  79.97728,  20.42910
  79.99731,  20.11194
  80.01733,  19.79443
  80.03736,  18.83163
  80.05739,  20.48117
  80.07741,  21.68772
  80.09744,  19.38781
  80.11747,  21.27711
  80.13750,  17.13586
  80.15753,  21.78119
  80.17755,  21.56533
  80.19758,  24.03815
  80.21761,  22.01150
  80.23763,  21.05916
  80.25766,  21.57701
  80.27769,  23.07717
  80.29772,  19.94817
  80.31775,  19.74670
  80.33777,  20.46885
  80.35780,  21.87767
  80.37783,  19.61710
  80.39786,  22.44793
  80.41788,  20.58054
  80.43791,  22.51141
  80.45794,  20.66871
  80.47797,  22.21339
  80.49799,  20.31200
  80.51802,  18.80119
  80.53805,  18.53761
  80.55808,  19.84924
  80.57810,  19.46457
  80.59813,  22.17913
  80.61816,  20.09532
  80.63819,  22.08186
  80.65822,  22.07820
  80.67824,  22.75647
  80.69827,  22.87722
  80.71830,  21.24282
  80.73833,  19.55213
  80.75835,  19.35831
  80.77838,  18.26454
  80.79841,  19.17654
  80.81844,  22.11163
  80.83846,  21.43658
  80.85849,  21.39901
  80.87852,  21.85830
  80.89855,  24.13668
  80.91857,  20.81873
  80.93860,  22.35887
  80.95863,  20.63508
  80.97866,  19.00407
  80.99869,  21.67861
  81.01872,  21.65657
  81.03874,  18.08471
  81.05877,  18.36538
  81.07880,  18.54992
  81.09883,  18.24838
  81.11885,  20.68065
  81.13888,  20.73411
  81.15891,  19.26273
  81.17894,  20.75953
  81.19897,  19.70976
  81.21899,  21.75988
  81.23902,  23.77252
  81.25905,  22.68551
  81.27908,  21.33346
  81.29910,  19.24697
  81.31913,  19.82541
  81.33916,  19.55605
  81.35919,  17.79787
  81.37922,  21.52312
  81.39924,  21.27998
  81.41927,  21.03870
  81.43930,  19.48109
  81.45933,  19.85915
  81.47936,  22.62579
  81.49939,  18.95206
  81.51941,  20.36889
  81.53944,  19.21969
  81.55947,  19.41527
  81.57950,  23.41533
  81.59952,  22.82762
  81.61955,  21.12496
  81.63958,  21.99190
  81.65961,  24.67741
  81.67964,  21.48390
  81.69967,  23.57669
  81.71969,  23.57339
  81.73972,  22.25224
  81.75975,  24.99570
  81.77978,  25.40979
  81.79981,  24.01451
  81.81984,  23.76398
  81.83986,  21.28178
  81.85989,  22.13869
  81.87992,  23.74043
  81.89995,  22.88297
  81.91998,  23.44075
  81.94000,  25.48686
  81.96003,  26.07700
  81.98006,  25.99782
  82.00009,  26.60664
  82.02012,  28.89963
  82.04015,  30.61474
  82.06017,  29.70820
  82.08020,  33.80798
  82.10023,  39.71841
  82.12026,  42.89316
  82.14029,  51.20288
  82.16032,  54.78627
  82.18034,  69.33633
  82.20037,  73.45240
  82.22040,  82.99186
  82.24043,  95.56479
  82.26046,  94.66913
  82.28049, 105.82187
  82.30051, 105.14898
  82.32054, 107.11273
  82.34057, 110.20692
  82.36060,  99.47247
  82.38063, 101.17413
  82.40066,  99.17069
  82.42068,  91.54505
  82.44071,  97.89155
  82.46074,  90.76646
  82.48077,  92.47342
  82.50080,  84.22566
  82.52083,  83.44082
  82.54085,  81.84716
  82.56088,  75.98924
  82.58091,  76.26717
  82.60094,  67.83373
  82.62097,  63.30246
  82.64100,  61.60350
  82.66103,  56.96977
  82.68105,  55.89572
  82.70108,  47.06915
  82.72111,  45.69056
  82.74114,  43.67713
  82.76117,  39.82927
  82.78120,  33.95485
  82.80123,  33.57802
  82.82125,  29.28617
  82.84128,  27.53776
  82.86131,  26.27073
  82.88134,  24.24436
  82.90137,  25.47049
  82.92140,  26.96005
  82.94143,  25.46082
  82.96145,  25.96504
  82.98148,  23.49366
  83.00151,  28.03144
  83.02154,  23.42582
  83.04157,  22.01158
  83.06160,  24.24959
  83.08163,  22.23635
  83.10166,  23.35744
  83.12169,  20.69019
  83.14171,  20.26105
  83.16174,  21.76652
  83.18177,  22.27592
  83.20180,  20.37137
  83.22183,  20.58264
  83.24186,  21.56890
  83.26189,  22.15166
  83.28191,  21.52588
  83.30194,  21.98633
  83.32197,  23.02147
  83.34200,  22.16611
  83.36203,  21.67067
  83.38206,  21.79208
  83.40209,  20.84586
  83.42212,  19.45416
  83.44215,  20.86733
  83.46218,  20.66699
  83.48220,  19.45752
  83.50223,  22.07740
  83.52226,  20.31530
  83.54229,  20.43253
  83.56232,  18.99327
  83.58235,  20.30216
  83.60238,  19.64618
  83.62241,  18.46132
  83.64244,  20.86482
  83.66246,  17.97831
  83.68249,  20.61086
  83.70252,  19.45424
  83.72255,  22.59264
  83.74258,  22.37499
  83.76261,  25.14590
  83.78264,  21.12351
  83.80267,  19.28408
  83.82270,  19.14145
  83.84272,  21.55735
  83.86275,  23.35160
  83.88278,  20.64706
  83.90281,  23.36810
  83.92284,  21.18559
  83.94287,  19.83888
  83.96290,  20.72119
  83.98293,  22.46296
  84.00296,  18.39466
  84.02299,  20.93110
  84.04302,  20.53161
  84.06305,  23.90891
  84.08308,  22.54739
  84.10310,  19.21844
  84.12313,  19.14995
  84.14316,  20.89682
  84.16319,  20.47593
  84.18322,  19.72966
  84.20325,  20.50969
  84.22328,  19.96549
  84.24331,  18.54057
  84.26334,  19.74439
  84.28337,  16.93068
  84.30340,  19.27312
  84.32342,  22.68718
  84.34345,  19.48865
  84.36348,  20.16733
  84.38351,  22.94265
  84.40354,  21.18728
  84.42357,  20.24018
  84.44360,  19.38899
  84.46363,  19.75417
  84.48366,  18.80973
  84.50369,  19.24762
  84.52372,  19.07765
  84.54375,  19.41085
  84.56378,  19.44216
  84.58381,  21.20243
  84.60384,  20.65763
  84.62387,  20.72243
  84.64390,  22.57826
  84.66393,  19.33857
  84.68395,  18.25132
  84.70398,  18.16207
  84.72401,  20.47764
  84.74404,  21.52310
  84.76407,  20.13242
  84.78410,  23.62035
  84.80413,  20.33141
  84.82416,  20.48368
  84.84419,  22.45018
  84.86422,  19.46789
  84.88425,  20.48948
  84.90428,  20.55618
  84.92431,  20.58821
  84.94434,  23.04888
  84.96437,  19.89069
  84.98440,  19.42461
  85.00443,  18.03882
  85.02446,  20.71383
  85.04449,  22.54699
  85.06452,  17.88565
  85.08455,  21.60024
  85.10458,  20.98290
  85.12460,  20.09115
  85.14463,  20.79044
  85.16466,  20.59658
  85.18469,  18.74954
  85.20472,  21.38856
  85.22475,  22.59893
  85.24478,  19.17452
  85.26481,  20.65641
  85.28484,  19.98984
  85.30487,  18.48984
  85.32490,  20.22848
  85.34493,  19.86455
  85.36496,  21.99743
  85.38499,  21.17721
  85.40502,  19.42850
  85.42505,  20.43443
  85.44508,  18.34021
  85.46511,  16.91155
  85.48514,  17.49398
  85.50517,  19.20948
  85.52520,  22.91437
  85.54523,  21.18080
  85.56526,  18.28486
  85.58529,  18.88536
  85.60532,  20.06087
  85.62535,  19.98608
  85.64538,  20.75130
  85.66541,  19.12169
  85.68544,  20.12193
  85.70547,  21.28763
  85.72550,  21.34856
  85.74553,  19.95896
  85.76556,  18.31445
  85.78559,  22.44599
  85.80562,  22.23724
  85.82565,  19.88976
  85.84568,  20.94089
  85.86571,  19.97841
  85.88574,  17.28754
  85.90577,  20.56024
  85.92580,  20.95759
  85.94583,  22.84715
  85.96586,  22.50541
  85.98589,  21.54692
  86.00592,  20.09231
  86.02595,  21.06486
  86.04598,  19.25164
  86.06601,  19.91729
  86.08604,  21.14560
  86.10607,  19.11662
  86.12610,  19.74129
  86.14613,  20.82436
  86.16616,  20.26382
  86.18619,  17.62052
  86.20622,  20.02381
  86.22625,  20.34351
  86.24628,  21.41447
  86.26631,  21.19462
  86.28634,  20.75597
  86.30637,  21.26371
  86.32640,  20.23987
  86.34643,  21.56544
  86.36646,  19.88779
  86.38649,  18.98507
  86.40652,  19.83012
  86.42655,  20.14475
  86.44658,  21.23514
  86.46661,  20.28011
  86.48664,  19.78490
  86.50667,  17.62679
  86.52670,  20.95303
  86.54674,  19.38149
  86.56677,  22.05871
  86.58680,  22.38230
  86.60683,  21.39835
  86.62686,  22.07889
  86.64689,  19.92279
  86.66692,  21.58006
  86.68695,  21.44833
  86.70698,  19.85625
  86.72701,  21.45005
  86.74704,  18.42865
  86.76707,  20.85707
  86.78710,  19.89759
  86.80713,  19.99256
  86.82716,  21.04405
  86.84719,  19.72864
  86.86722,  21.00472
  86.88725,  20.07074
  86.90728,  18.63132
  86.92731,  22.49777
  86.94734,  20.92190
  86.96737,  19.78833
  86.98740,  17.67479
  87.00744,  19.43721
  87.02747,  19.76329
  87.04750,  18.30637
  87.06753,  19.98635
  87.08756,  20.90906
  87.10759,  18.08444
  87.12762,  19.27504
  87.14765,  20.76135
  87.16768,  21.23974
  87.18771,  21.25029
  87.20774,  20.59464
  87.22777,  19.65038
  87.24780,  20.80100
  87.26784,  19.53496
  87.28787,  18.23757
  87.30790,  21.64394
  87.32793,  19.95159
  87.34796,  21.80167
  87.36799,  18.69825
  87.38802,  21.20169
  87.40805,  20.75559
  87.42808,  21.52750
  87.44811,  20.11239
  87.46814,  18.84818
  87.48817,  19.68731
  87.50820,  18.56700
  87.52824,  19.93560
  87.54827,  21.99493
  87.56830,  18.87524
  87.58833,  21.78147
  87.60836,  20.63644
  87.62839,  21.05331
  87.64842,  21.24408
  87.66845,  18.96818
  87.68848,  19.59968
  87.70851,  20.51256
  87.72854,  21.58373
  87.74857,  21.11715
  87.76860,  19.87517
  87.78864,  23.20910
  87.80867,  21.55614
  87.82870,  24.77802
  87.84873,  22.04994
  87.86876,  21.88272
  87.88879,  18.86708
  87.90882,  17.88319
  87.92885,  18.31802
  87.94889,  20.49163
  87.96892,  20.78975
  87.98895,  19.83498
  88.00898,  19.54010
  88.02901,  17.98109
  88.04904,  17.21611
  88.06907,  21.71265
  88.08910,  19.64080
  88.10913,  23.38116
  88.12916,  20.60066
  88.14920,  21.21085
  88.16923,  17.57242
  88.18926,  19.92534
  88.20929,  19.05018
  88.22932,  18.66549
  88.24935,  21.51089
  88.26938,  22.77201
  88.28941,  25.30120
  88.30945,  19.67670
  88.32948,  22.03372
  88.34951,  17.18318
  88.36954,  19.72374
  88.38957,  20.70173
  88.40960,  21.79884
  88.42963,  24.01931
  88.44967,  20.34116
  88.46970,  18.53626
  88.48973,  22.66741
  88.50976,  19.89723
  88.52979,  16.33639
  88.54982,  17.80226
  88.56985,  22.84204
  88.58988,  21.07837
  88.60992,  19.68016
  88.62995,  21.45037
  88.64998,  20.30892
  88.67001,  19.65932
  88.69004,  19.31773
  88.71007,  19.24437
  88.73010,  20.90393
  88.75014,  20.18267
  88.77017,  20.08075
  88.79020,  19.18451
  88.81023,  21.79103
  88.83026,  19.46973
  88.85029,  19.38028
  88.87032,  20.07520
  88.89036,  17.73372
  88.91039,  19.16917
  88.93042,  19.81542
  88.95045,  19.80447
  88.97048,  18.98001
  88.99051,  20.60559
  89.01055,  18.90674
  89.03058,  20.92692
  89.05061,  20.08310
  89.07064,  19.57994
  89.09067,  18.93069
  89.11070,  18.74224
  89.13074,  18.92332
  89.15077,  18.98571
  89.17080,  18.58596
  89.19083,  20.38359
  89.21086,  20.46653
  89.23090,  19.29499
  89.25093,  19.83656
  89.27096,  18.78541
  89.29099,  18.41363
  89.31102,  20.32002
  89.33105,  19.21393
  89.35109,  19.41509
  89.37112,  20.10321
  89.39115,  23.48167
  89.41118,  22.23002
  89.43121,  18.64592
  89.45125,  18.14652
  89.47128,  19.10723
  89.49131,  22.23317
  89.51134,  20.05408
  89.53137,  20.32267
  89.55140,  18.41280
  89.57144,  19.03884
  89.59147,  22.44655
  89.61150,  20.03253
  89.63153,  20.13549
  89.65157,  22.08147
  89.67160,  19.89213
  89.69163,  20.48145
  89.71166,  21.51874
  89.73169,  19.72060
  89.75173,  19.81725
  89.77176,  20.96129
  89.79179,  21.09118
  89.81182,  21.85957
  89.83185,  19.25567
  89.85189,  22.08385
  89.87192,  21.86769
  89.89195,  22.38215
  89.91198,  19.40420
  89.93201,  21.20582
  89.95205,  21.38857
  89.97208,  23.06027
  89.99211,  23.44982
  90.01214,  20.94520
  90.03217,  21.87395
  90.05221,  20.41649
  90.07224,  21.74385
  90.09227,  23.42250
  90.11230,  21.59120
  90.13234,  21.69804
  90.15237,  23.20894
  90.17240,  23.00249
  90.19243,  23.85285
  90.21246,  25.10479
  90.23250,  27.35607
  90.25253,  24.81240
  90.27256,  23.86868
  90.29259,  28.36153
  90.31263,  30.96947
  90.33266,  30.74519
  90.35269,  32.63210
  90.37272,  38.85596
  90.39276,  40.85118
  90.41279,  41.42842
  90.43282,  49.78957
  90.45285,  52.04250
  90.47289,  63.45681
  90.49292,  62.94253
  90.51295,  73.59467
  90.53298,  75.98792
  90.55302,  82.10108
  90.57305,  82.57950
  90.59308,  87.84009
  90.61311,  87.01865
  90.63315,  88.50145
  90.65318,  84.00007
  90.67321,  85.07363
  90.69324,  74.66300
  90.71328,  77.58013
  90.73331,  73.63147
  90.75334,  73.74242
  90.77337,  71.16974
  90.79341,  65.16067
  90.81344,  64.05325
  90.83347,  62.65927
  90.85351,  62.82265
  90.87354,  60.08720
  90.89357,  63.02822
  90.91360,  56.47651
  90.93364,  53.14587
  90.95367,  49.72816
  90.97370,  50.84295
  90.99373,  50.41247
  91.01377,  46.94736
  91.03380,  44.57979
  91.05383,  39.16325
  91.07386,  39.01078
  91.09390,  37.13285
  91.11393,  31.32731
  91.13396,  29.54489
  91.15399,  29.58926
  91.17403,  29.66585
  91.19406,  31.48398
  91.21410,  24.62307
  91.23413,  26.76581
  91.25416,  24.01284
  91.27419,  23.25780
  91.29423,  23.80563
  91.31426,  24.68161
  91.33429,  25.28699
  91.35432,  25.29688
  91.37436,  19.85594
  91.39439,  19.74228
  91.41442,  21.42033
  91.43446,  22.36126
  91.45449,  24.20707
  91.47452,  23.04134
  91.49456,  21.25360
  91.51459,  21.72659
  91.53462,  18.69134
  91.55465,  22.10968
  91.57469,  20.05578
  91.59472,  21.70438
  91.61475,  21.03134
  91.63479,  20.53812
  91.65482,  19.14634
  91.67485,  21.66110
  91.69489,  22.59292
  91.71492,  18.83812
  91.73495,  20.70974
  91.75499,  23.34508
  91.77502,  18.75165
  91.79505,  21.09744
  91.81509,  22.18785
  91.83512,  19.50838
  91.85515,  16.88227
  91.87519,  18.51507
  91.89522,  19.53286
  91.91525,  20.67079
  91.93529,  19.41643
  91.95532,  18.03128
  91.97535,  18.09065
  91.99539,  21.25589
  92.01542,  16.66131
  92.03545,  17.93940
  92.05548,  21.26780
  92.07552,  21.35054
  92.09555,  19.97677
  92.11559,  20.94283
  92.13562,  19.34007
  92.15565,  21.97827
  92.17569,  22.87654
  92.19572,  19.43539
  92.21575,  18.67199
  92.23579,  17.56207
  92.25582,  17.22598
  92.27585,  22.52956
  92.29589,  22.98077
  92.31592,  19.83732
  92.33595,  20.28794
  92.35599,  21.32370
  92.37602,  19.80692
  92.39605,  21.50566
  92.41609,  19.73202
  92.43612,  18.96148
  92.45616,  19.09693
  92.47619,  20.59084
  92.49622,  17.05431
  92.51626,  16.45653
  92.53629,  18.19255
  92.55632,  19.54232
  92.57636,  20.85725
  92.59639,  19.53579
  92.61642,  21.50961
  92.63646,  17.72504
  92.65649,  19.72420
  92.67653,  18.43583
  92.69656,  19.95124
  92.71659,  19.23346
  92.73663,  20.36831
  92.75666,  18.98122
  92.77669,  19.05712
  92.79673,  18.27016
  92.81676,  21.30710
  92.83680,  19.13405
  92.85683,  21.00218
  92.87686,  21.15468
  92.89690,  16.21037
  92.91693,  19.11346
  92.93697,  24.65730
  92.95700,  20.49037
  92.97703,  21.28442
  92.99707,  18.36460
  93.01710,  18.61081
  93.03714,  17.63054
  93.05717,  19.63266
  93.07720,  19.96555
  93.09724,  22.19609
  93.11727,  18.56496
  93.13731,  16.37006
  93.15734,  20.09392
  93.17737,  19.51556
  93.19741,  19.09894
  93.21744,  20.46069
  93.23748,  20.01691
  93.25751,  20.91308
  93.27754,  17.67487
  93.29758,  16.88300
  93.31761,  22.01577
  93.33765,  17.65255
  93.35768,  16.33365
  93.37772,  16.72509
  93.39775,  19.60131
  93.41778,  18.73246
  93.43782,  19.07875
  93.45785,  18.33092
  93.47789,  19.82440
  93.49792,  19.24155
  93.51795,  18.85727
  93.53799,  21.98752
  93.55802,  21.62359
  93.57806,  18.14422
  93.59809,  20.02348
  93.61813,  19.84250
  93.63816,  20.79271
  93.65820,  19.54974
  93.67823,  19.52880
  93.69826,  19.30874
  93.71830,  20.19651
  93.73833,  20.18618
  93.75837,  19.26850
  93.77840,  19.02965
  93.79844,  21.68742
  93.81847,  19.41682
  93.83851,  18.40864
  93.85854,  19.65382
  93.87858,  19.19826
  93.89861,  21.13362
  93.91864,  19.63192
  93.93868,  19.78900
  93.95871,  17.52366
  93.97875,  15.93611
  93.99878,  20.95020
  94.01882,  17.41402
  94.03885,  19.26790
  94.05889,  17.34909
  94.07892,  17.95500
  94.09895,  17.25921
  94.11899,  18.39506
  94.13902,  19.58564
  94.15906,  21.62047
  94.17909,  20.24889
  94.19913,  21.03259
  94.21916,  17.98373
  94.23920,  19.09173
  94.25923,  17.99435
  94.27927,  19.32490
  94.29930,  21.63073
  94.31934,  17.56673
  94.33937,  21.64777
  94.35941,  18.95313
  94.37944,  18.56095
  94.39948,  19.13471
  94.41951,  15.84100
  94.43955,  14.85535
  94.45958,  17.06670
  94.47961,  19.37373
  94.49965,  18.40070
  94.51969,  19.08744
  94.53972,  17.36343
  94.55976,  16.98706
  94.57979,  17.93067
  94.59983,  16.34594
  94.61986,  18.20788
  94.63989,  17.17066
  94.65993,  19.46470
  94.67997,  20.45681
  94.70000,  19.70126
  94.72004,  17.17925
  94.74007,  15.41879
  94.76010,  18.36418
  94.78014,  19.78205
  94.80018,  18.11554
  94.82021,  20.03831
  94.84025,  19.39985
  94.86028,  18.17923
  94.88032,  19.48429
  94.90035,  20.11302
  94.92039,  16.28799
  94.94042,  16.84396
  94.96046,  19.21356
  94.98049,  20.53114
  95.00053,  19.49828
  95.02056,  15.29006
  95.04060,  18.02498
  95.06063,  18.65327
  95.08067,  17.60045
  95.10070,  18.72417
  95.12074,  19.69760
  95.14077,  17.95289
  95.16081,  21.33140
  95.18084,  18.72976
  95.20088,  20.06138
  95.22092,  17.10302
  95.24095,  19.70039
  95.26099,  20.14074
  95.28102,  17.61096
  95.30106,  21.06285
  95.32109,  17.39494
  95.34113,  18.14199
  95.36116,  20.07481
  95.38120,  17.62789
  95.40124,  21.16021
  95.42127,  21.92112
  95.44131,  20.79388
  95.46134,  21.87927
  95.48138,  23.17267
  95.50141,  21.93253
  95.52145,  23.14970
  95.54149,  21.11161
  95.56152,  20.48280
  95.58156,  19.75970
  95.60159,  20.42655
  95.62163,  23.56098
  95.64166,  22.08930
  95.66170,  23.02932
  95.68173,  25.24378
  95.70177,  25.88132
  95.72181,  30.26878
  95.74184,  32.45966
  95.76188,  36.58200
  95.78191,  34.12801
  95.80195,  43.26038
  95.82199,  40.88220
  95.84202,  38.92682
  95.86206,  36.16264
  95.88209,  36.57580
  95.90213,  36.62637
  95.92216,  33.43750
  95.94220,  33.77592
  95.96224,  33.68969
  95.98227,  34.30018
  96.00231,  32.22955
  96.02234,  33.77195
  96.04238,  28.04749
  96.06241,  30.05212
  96.08245,  32.40283
  96.10249,  31.77721
  96.12252,  31.90924
  96.14256,  31.89398
  96.16259,  30.82762
  96.18263,  30.89004
  96.20267,  22.72591
  96.22270,  25.41436
  96.24274,  27.56252
  96.26278,  26.45296
  96.28281,  25.86411
  96.30285,  24.73243
  96.32288,  20.67498
  96.34292,  22.62470
  96.36296,  25.04938
  96.38299,  20.76783
  96.40303,  22.88174
  96.42306,  21.74155
  96.44310,  20.87224
  96.46314,  22.21960
  96.48317,  19.84081
  96.50321,  21.53183
  96.52325,  21.73543
  96.54328,  20.77796
  96.56332,  18.75489
  96.58336,  19.93910
  96.60339,  20.00283
  96.62343,  21.40516
  96.64346,  18.57097
  96.66350,  18.47416
  96.68354,  19.46389
  96.70357,  18.85301
  96.72361,  16.69458
  96.74365,  17.58346
  96.76368,  17.42857
  96.78372,  19.36871
  96.80376,  20.28932
  96.82379,  21.13750
  96.84383,  19.08629
  96.86387,  19.60947
  96.88390,  21.12327
  96.90394,  21.62876
  96.92397,  17.66438
  96.94401,  18.50931
  96.96405,  19.27293
  96.98409,  17.85303
  97.00412,  17.45187
  97.02416,  18.49357
  97.04420,  20.63192
  97.06423,  19.36972
  97.08427,  17.04663
  97.10431,  20.43628
  97.12434,  20.20782
  97.14438,  21.19254
  97.16442,  19.86638
  97.18445,  19.20461
  97.20449,  17.03124
  97.22453,  19.48916
  97.24456,  16.76499
  97.26460,  19.61508
  97.28464,  19.73778
  97.30467,  18.57493
  97.32471,  18.49296
  97.34475,  18.88095
  97.36478,  18.08439
  97.38482,  18.65586
  97.40486,  18.16970
  97.42490,  16.00019
  97.44493,  19.35156
  97.46497,  16.96111
  97.48501,  19.78180
  97.50504,  19.48617
  97.52508,  16.59474
  97.54512,  19.68266
  97.56515,  19.65024
  97.58519,  18.94656
  97.60523,  19.34301
  97.62526,  16.70578
  97.64530,  18.50222
  97.66534,  20.08622
  97.68538,  17.25712
  97.70541,  18.30375
  97.72545,  17.66562
  97.74549,  21.07293
  97.76553,  19.44224
  97.78556,  20.11926
  97.80560,  18.45429
  97.82564,  16.37885
  97.84568,  17.70955
  97.86571,  17.87186
  97.88575,  17.34350
  97.90579,  16.84054
  97.92582,  16.65691
  97.94586,  16.67618
  97.96590,  17.62839
  97.98593,  17.34151
  98.00597,  18.19355
  98.02601,  18.32759
  98.04605,  17.01027
  98.06609,  19.78226
  98.08612,  19.76812
  98.10616,  19.10541
  98.12620,  19.61906
  98.14623,  20.85981
  98.16627,  23.38563
  98.18631,  17.62836
  98.20635,  17.73206
  98.22639,  17.27729
  98.24642,  19.00804
  98.26646,  19.84351
  98.28650,  18.22872
  98.30654,  21.54161
  98.32657,  22.23901
  98.34661,  19.66442
  98.36665,  19.41082
  98.38669,  20.46475
  98.40672,  19.87157
  98.42676,  20.61802
  98.44680,  20.85389
  98.46684,  20.90766
  98.48688,  20.18480
  98.50691,  19.52006
  98.52695,  21.34449
  98.54699,  22.85531
  98.56702,  24.65171
  98.58706,  25.68204
  98.60710,  22.91068
  98.62714,  26.18916
  98.64718,  30.30256
  98.66721,  32.61747
  98.68725,  32.47164
  98.70729,  38.78183
  98.72733,  38.71107
  98.74737,  46.04868
  98.76741,  46.83724
  98.78744,  43.93442
  98.80748,  45.41372
  98.82752,  43.11955
  98.84756,  41.67869
  98.86759,  37.15555
  98.88763,  33.52622
  98.90767,  35.03219
  98.92771,  32.04559
  98.94775,  31.85222
  98.96779,  31.71177
  98.98782,  33.61271
  99.00786,  34.32632
  99.02790,  32.88979
  99.04794,  29.71687
  99.06798,  28.86477
  99.08801,  34.75076
  99.10805,  33.72340
  99.12809,  30.98396
  99.14813,  29.36837
  99.16817,  31.64391
  99.18821,  31.67127
  99.20824,  29.12964
  99.22828,  26.59056
  99.24832,  26.80998
  99.26836,  23.43979
  99.28840,  23.46305
  99.30844,  23.45601
  99.32847,  22.87108
  99.34851,  20.15845
  99.36855,  20.64437
  99.38859,  23.16081
  99.40863,  23.34557
  99.42867,  19.90170
  99.44870,  20.32791
  99.46874,  21.66340
  99.48878,  20.50314
  99.50882,  20.62273
  99.52886,  21.11062
  99.54890,  16.92365
  99.56894,  15.17883
  99.58897,  18.28402
  99.60901,  18.59645
  99.62905,  17.94976
  99.64909,  20.44765
  99.66913,  19.90602
  99.68917,  19.72867
  99.70921,  18.95615
  99.72925,  21.49646
  99.74928,  19.22008
  99.76932,  15.85794
  99.78936,  20.26673
  99.80940,  22.28071
  99.82944,  20.29878
  99.84948,  17.55389
  99.86952,  16.90902
  99.88955,  19.26242
  99.90959,  18.97510
  99.92963,  20.46213
  99.94967,  19.65024
  99.96971,  18.22860
  99.98975,  19.12705
 100.00979,  18.97659
 100.02983,  21.74569
 100.04987,  18.30936
 100.06991,  18.82904
 100.08995,  16.71996
 100.10998,  16.43012
 100.13002,  18.70669
 100.15006,  18.79407
 100.17010,  19.02505
 100.19014,  17.17362
 100.21018,  17.84920
 100.23022,  17.76675
 100.25026,  17.44039
 100.27030,  19.53184
 100.29034,  20.04164
 100.31038,  18.81876
 100.33041,  18.61520
 100.35045,  18.53768
 100.37049,  17.02427
 100.39053,  19.31797
 100.41057,  17.37529
 100.43061,  19.82306
 100.45065,  17.76556
 100.47069,  17.88108
 100.49073,  17.20811
 100.51077,  17.88498
 100.53081,  17.58130
 100.55085,  18.74214
 100.57089,  19.33554
 100.59093,  17.85660
 100.61096,  17.34382
 100.63100,  19.37783
 100.65104,  19.35203
 100.67108,  18.18821
 100.69112,  18.23513
 100.71116,  22.58858
 100.73120,  17.50272
 100.75124,  19.89202
 100.77128,  19.72218
 100.79132,  18.52854
 100.81136,  17.56224
 100.83140,  19.25171
 100.85144,  19.17552
 100.87148,  18.51401
 100.89152,  18.81642
 100.91156,  22.71674
 100.93160,  19.93020
 100.95164,  17.91966
 100.97168,  17.07824
 100.99172,  21.10220
 101.01176,  19.51947
 101.03180,  15.51365
 101.05184,  18.80312
 101.07188,  19.92715
 101.09191,  18.75460
 101.11196,  16.95026
 101.13200,  18.24889
 101.15204,  17.92798
 101.17207,  17.00247
 101.19212,  18.85646
 101.21216,  20.57313
 101.23220,  20.19652
 101.25224,  18.62863
 101.27228,  17.80738
 101.29232,  18.24583
 101.31236,  19.04016
 101.33239,  15.70868
 101.35243,  17.50784
 101.37248,  16.51185
 101.39251,  14.44984
 101.41256,  19.26073
 101.43260,  18.68298
 101.45263,  18.32618
 101.47268,  18.22408
 101.49272,  16.23742
 101.51276,  19.55956
 101.53280,  19.18052
 101.55284,  19.23548
 101.57288,  18.05621
 101.59292,  18.62008
 101.61296,  16.40674
 101.63300,  17.83047
 101.65304,  20.73191
 101.67308,  18.07384
 101.69312,  15.06181
 101.71316,  17.95398
 101.73320,  18.42801
 101.75324,  17.66703
 101.77328,  16.90176
 101.79332,  18.97384
 101.81336,  16.18490
 101.83340,  18.11933
 101.85344,  16.69491
 101.87348,  17.34651
 101.89352,  17.24176
 101.91356,  17.29158
 101.93360,  17.55978
 101.95364,  16.77897
 101.97369,  15.51750
 101.99373,  16.43125
 102.01377,  16.91423
 102.03381,  16.30779
 102.05385,  18.94409
 102.07389,  19.24738
 102.09393,  16.02097
 102.11397,  19.02188
 102.13401,  18.24757
 102.15405,  17.08649
 102.17409,  16.23886
 102.19413,  18.46676
 102.21417,  18.06791
 102.23421,  17.59881
 102.25426,  19.86618
 102.27430,  21.35130
 102.29434,  17.32572
 102.31438,  18.95858
 102.33442,  21.82408
 102.35446,  20.26118
 102.37450,  20.49377
 102.39454,  18.75238
 102.41458,  19.11621
 102.43462,  16.09576
 102.45467,  16.83411
 102.47471,  15.88598
 102.49475,  18.28147
 102.51479,  20.96589
 102.53483,  17.36524
 102.55487,  16.22389
 102.57491,  19.25461
 102.59495,  19.45643
 102.61499,  18.70305
 102.63503,  18.37990
 102.65508,  19.45872
 102.67512,  18.54349
 102.69516,  17.74078
 102.71520,  18.73102
 102.73524,  18.46192
 102.75528,  16.56061
 102.77532,  17.46306
 102.79536,  16.55253
 102.81541,  18.71998
 102.83545,  19.75330
 102.85549,  17.47277
 102.87553,  17.60110
 102.89557,  18.26483
 102.91561,  19.81217
 102.93566,  18.34337
 102.95569,  19.49594
 102.97574,  16.40153
 102.99578,  17.03660
 103.01582,  17.90321
 103.03586,  17.58170
 103.05590,  16.60157
 103.07595,  15.60425
 103.09599,  17.83183
 103.11603,  16.24650
 103.13607,  17.84488
 103.15611,  18.49398
 103.17615,  16.74661
 103.19620,  16.01772
 103.21624,  18.42324
 103.23628,  19.80781
 103.25632,  19.38149
 103.27636,  16.63746
 103.29640,  19.91848
 103.31645,  19.65178
 103.33649,  19.05149
 103.35653,  17.79056
 103.37657,  17.04837
 103.39661,  14.02386
 103.41665,  16.84727
 103.43670,  17.56930
 103.45674,  18.62500
 103.47678,  17.26824
 103.49682,  18.52376
 103.51686,  16.94125
 103.53691,  17.87133
 103.55695,  17.44006
 103.57699,  15.59181
 103.59703,  18.65921
 103.61708,  17.95269
 103.63712,  15.90458
 103.65716,  19.09869
 103.67720,  19.55906
 103.69724,  19.44740
 103.71728,  19.22939
 103.73733,  14.98248
 103.75737,  18.56843
 103.77741,  19.30142
 103.79745,  18.81143
 103.81750,  17.78901
 103.83754,  18.87027
 103.85758,  19.85040
 103.87762,  19.34402
 103.89767,  17.43282
 103.91771,  18.11989
 103.93775,  21.68378
 103.95779,  19.18514
 103.97783,  17.00414
 103.99788,  18.11522
 104.01792,  17.20419
 104.03796,  16.05775
 104.05800,  19.81125
 104.07805,  16.23382
 104.09809,  16.31539
 104.11813,  18.31395
 104.13817,  19.30856
 104.15822,  21.15963
 104.17826,  17.62633
 104.19830,  18.09894
 104.21835,  17.32965
 104.23839,  17.72967
 104.25843,  17.97616
 104.27847,  17.89922
 104.29852,  17.80849
 104.31856,  18.12842
 104.33860,  18.24329
 104.35864,  18.39373
 104.37869,  16.55072
 104.39873,  17.15987
 104.41877,  17.86080
 104.43881,  21.29438
 104.45886,  18.68439
 104.47890,  18.53050
 104.49895,  17.99374
 104.51899,  17.19377
 104.53903,  16.93707
 104.55907,  15.57118
 104.57912,  18.66677
 104.59916,  17.49291
 104.61920,  15.56673
 104.63925,  18.74185
 104.65929,  17.56893
 104.67933,  17.76412
 104.69938,  19.09164
 104.71942,  18.42921
 104.73946,  19.62689
 104.75950,  18.70263
 104.77955,  17.80589
 104.79959,  15.46454
 104.81963,  17.54007
 104.83968,  18.05518
 104.85972,  17.52391
 104.87976,  18.36285
 104.89981,  19.24138
 104.91985,  20.02659
 104.93989,  18.73985
 104.95994,  18.36259
 104.97998,  17.46391
 105.00002,  17.68129
 105.02007,  18.08022
 105.04011,  18.40550
 105.06015,  14.54382
 105.08020,  14.89316
 105.10024,  15.17754
 105.12029,  17.13951
 105.14033,  17.83557
 105.16037,  19.15033
 105.18041,  18.86446
 105.20046,  19.18320
 105.22050,  16.87978
 105.24055,  17.17481
 105.26059,  17.03698
 105.28063,  19.22527
 105.30068,  21.06699
 105.32072,  19.02661
 105.34076,  20.32503
 105.36081,  19.40704
 105.38085,  17.78759
 105.40090,  17.89073
 105.42094,  16.23859
 105.44098,  17.85242
 105.46103,  15.93945
 105.48107,  17.46975
 105.50111,  18.36439
 105.52116,  17.99366
 105.54120,  18.16255
 105.56125,  17.07544
 105.58129,  16.86393
 105.60134,  16.30468
 105.62138,  18.61019
 105.64142,  19.02602
 105.66147,  17.49533
 105.68151,  18.71067
 105.70156,  16.00743
 105.72160,  19.19684
 105.74164,  19.53786
 105.76169,  17.09387
 105.78173,  17.40148
 105.80178,  18.68725
 105.82182,  19.49298
 105.84187,  18.53263
 105.86191,  17.58282
 105.88195,  16.35216
 105.90200,  18.31913
 105.92204,  17.77243
 105.94209,  16.94633
 105.96213,  19.00469
 105.98218,  19.36565
 106.00222,  19.50134
 106.02226,  17.94646
 106.04231,  19.35502
 106.06235,  17.56330
 106.08240,  16.91760
 106.10244,  17.64850
 106.12249,  16.54215
 106.14253,  17.49502
 106.16257,  18.19486
 106.18262,  15.85230
 106.20266,  17.98052
 106.22271,  19.93984
 106.24275,  17.87613
 106.26280,  19.97058
 106.28284,  19.38109
 106.30289,  16.61778
 106.32293,  19.03835
 106.34298,  19.68802
 106.36302,  17.55031
 106.38307,  17.21058
 106.40311,  20.35762
 106.42316,  17.22958
 106.44320,  15.89654
 106.46325,  18.19163
 106.48329,  15.91553
 106.50334,  18.13998
 106.52338,  19.23422
 106.54343,  18.05727
 106.56347,  18.66655
 106.58352,  17.94082
 106.60356,  17.70096
 106.62361,  17.12749
 106.64365,  20.46247
 106.66370,  17.40519
 106.68374,  18.80776
 106.70379,  18.47434
 106.72383,  20.50933
 106.74388,  17.94732
 106.76392,  15.98191
 106.78397,  17.53370
 106.80401,  17.43438
 106.82406,  19.74014
 106.84410,  17.83492
 106.86415,  18.42180
 106.88419,  17.41215
 106.90424,  17.43734
 106.92429,  16.27230
 106.94433,  17.00306
 106.96438,  16.55905
 106.98442,  17.51256
 107.00447,  16.83374
 107.02451,  19.63687
 107.04456,  19.26687
 107.06460,  16.46349
 107.08465,  16.58082
 107.10469,  17.32106
 107.12474,  16.87741
 107.14478,  17.66587
 107.16483,  18.29747
 107.18488,  19.17440
 107.20492,  18.80933
 107.22497,  17.98865
 107.24501,  17.76930
 107.26506,  18.98349
 107.28511,  17.50406
 107.30515,  17.50248
 107.32520,  19.66337
 107.34524,  20.29876
 107.36529,  15.63530
 107.38533,  18.18276
 107.40538,  19.11413
 107.42543,  18.37207
 107.44547,  15.49239
 107.46552,  17.75770
 107.48556,  15.74390
 107.50561,  17.07014
 107.52566,  17.21020
 107.54570,  18.48209
 107.56575,  19.09190
 107.58579,  18.77860
 107.60584,  18.38247
 107.62589,  15.45131
 107.64593,  16.56595
 107.66598,  15.42161
 107.68602,  13.70842
 107.70607,  17.56614
 107.72612,  16.08797
 107.74616,  16.65155
 107.76621,  17.46886
 107.78626,  15.17123
 107.80630,  18.54267
 107.82635,  19.32076
 107.84640,  20.27596
 107.86644,  18.30840
 107.88649,  16.25612
 107.90654,  18.12104
 107.92658,  19.65782
 107.94663,  18.61657
 107.96667,  16.37354
 107.98672,  20.04330
 108.00677,  20.42246
 108.02681,  21.16217
 108.04686,  19.93556
 108.06691,  19.30866
 108.08695,  18.11810
 108.10700,  18.92989
 108.12705,  19.01883
 108.14709,  18.36454
 108.16714,  17.53194
 108.18719,  17.39627
 108.20723,  17.85329
 108.22728,  19.56982
 108.24733,  16.40358
 108.26737,  20.54324
 108.28742,  17.70108
 108.30747,  16.99641
 108.32751,  18.00250
 108.34756,  19.55361
 108.36761,  16.14505
 108.38766,  17.71476
 108.40770,  18.87202
 108.42775,  19.49770
 108.44780,  19.78919
 108.46785,  17.66853
 108.48789,  18.60179
 108.50794,  18.18425
 108.52799,  17.15915
 108.54803,  15.61515
 108.56808,  17.59673
 108.58813,  15.70506
 108.60817,  14.68561
 108.62822,  16.57017
 108.64827,  19.03705
 108.66832,  19.30040
 108.68836,  16.29453
 108.70841,  17.55791
 108.72846,  16.27752
 108.74851,  18.75299
 108.76855,  18.76807
 108.78860,  16.66620
 108.80865,  17.84058
 108.82869,  19.34650
 108.84874,  19.10462
 108.86879,  17.83841
 108.88884,  18.22362
 108.90889,  18.36351
 108.92893,  16.49777
 108.94898,  18.08931
 108.96903,  17.58299
 108.98908,  15.65122
 109.00912,  18.94869
 109.02917,  17.75167
 109.04922,  18.73945
 109.06927,  16.72651
 109.08932,  17.49917
 109.10936,  16.68466
 109.12941,  17.40807
 109.14946,  17.34658
 109.16951,  16.42469
 109.18955,  16.47350
 109.20960,  19.93605
 109.22965,  17.65419
 109.24970,  17.66811
 109.26975,  17.21242
 109.28979,  18.93171
 109.30984,  18.18708
 109.32989,  18.82192
 109.34994,  20.29575
 109.36999,  16.36683
 109.39004,  16.71090
 109.41008,  18.29710
 109.43013,  17.62832
 109.45018,  16.85456
 109.47023,  20.53906
 109.49028,  19.46786
 109.51033,  18.29067
 109.53037,  17.78034
 109.55042,  16.59086
 109.57047,  16.88624
 109.59052,  17.01808
 109.61057,  16.67236
 109.63062,  15.08969
 109.65066,  17.27846
 109.67071,  17.04231
 109.69076,  16.08456
 109.71081,  16.35359
 109.73086,  18.49763
 109.75091,  16.28302
 109.77095,  16.55528
 109.79100,  17.47103
 109.81105,  16.63004
 109.83110,  15.48307
 109.85115,  18.64731
 109.87120,  18.00780
 109.89125,  17.41711
 109.91129,  17.46666
 109.93134,  17.37697
 109.95139,  18.03286
 109.97144,  16.05717
 109.99149,  18.60907
 110.01154,  16.87464
 110.03159,  18.77793
 110.05164,  14.67121
 110.07169,  15.07293
 110.09174,  16.57589
 110.11178,  16.02970
 110.13183,  16.30470
 110.15188,  19.83550
 110.17193,  15.50149
 110.19198,  15.62214
 110.21203,  19.36922
 110.23208,  18.74077
 110.25213,  19.65066
 110.27218,  18.12869
 110.29223,  17.05972
 110.31227,  15.61485
 110.33233,  18.52160
 110.35237,  19.73388
 110.37242,  17.55901
 110.39247,  16.78090
 110.41252,  19.81842
 110.43257,  19.06132
 110.45262,  18.10635
 110.47267,  17.55547
 110.49272,  18.17298
 110.51277,  16.71529
 110.53282,  15.67686
 110.55287,  15.33938
 110.57292,  17.08404
 110.59297,  17.66689
 110.61302,  21.43198
 110.63307,  20.11263
 110.65312,  17.10535
 110.67317,  15.69433
 110.69322,  18.42140
 110.71327,  17.94067
 110.73331,  17.23872
 110.75337,  16.97724
 110.77341,  19.00186
 110.79347,  19.31576
 110.81352,  15.43206
 110.83356,  18.61398
 110.85361,  19.42321
 110.87367,  17.47983
 110.89372,  19.54719
 110.91377,  19.99412
 110.93382,  16.50791
 110.95387,  16.18363
 110.97392,  16.69825
 110.99396,  14.11596
 111.01401,  15.81959
 111.03407,  18.13784
 111.05412,  19.63249
 111.07417,  18.64402
 111.09422,  18.56466
 111.11427,  19.16654
 111.13432,  18.91759
 111.15437,  17.05736
 111.17442,  17.28086
 111.19447,  15.00777
 111.21452,  16.46921
 111.23457,  15.72571
 111.25462,  14.84506
 111.27467,  16.68285
 111.29472,  17.24152
 111.31477,  17.92090
 111.33482,  17.07926
 111.35487,  15.09390
 111.37492,  15.63150
 111.39497,  15.72888
 111.41502,  15.86697
 111.43507,  16.72735
 111.45513,  18.38302
 111.47517,  19.87620
 111.49523,  19.08001
 111.51528,  13.64400
 111.53533,  16.00713
 111.55538,  21.54976
 111.57543,  17.82777
 111.59548,  17.05534
 111.61553,  14.36149
 111.63558,  15.27252
 111.65563,  19.87242
 111.67569,  16.87054
 111.69574,  19.19799
 111.71579,  15.70374
 111.73584,  20.55659
 111.75589,  20.03273
 111.77594,  17.66311
 111.79599,  18.88083
 111.81604,  16.07055
 111.83609,  17.21821
 111.85615,  17.69652
 111.87619,  15.66323
 111.89625,  17.67104
 111.91630,  15.23364
 111.93635,  14.73889
 111.95640,  18.03762
 111.97645,  15.39393
 111.99650,  18.54667
 112.01655,  18.46183
 112.03661,  16.91624
 112.05666,  17.43399
 112.07671,  16.20815
 112.09676,  15.57083
 112.11681,  16.27360
 112.13686,  15.22828
 112.15692,  16.85047
 112.17697,  17.19672
 112.19702,  17.70196
 112.21707,  18.04391
 112.23712,  19.12122
 112.25717,  16.27763
 112.27723,  16.78496
 112.29728,  18.03621
 112.31733,  18.48743
 112.33738,  17.75634
 112.35743,  18.57483
 112.37749,  19.81085
 112.39754,  18.06760
 112.41759,  18.25412
 112.43764,  18.94236
 112.45769,  20.93286
 112.47775,  18.86762
 112.49780,  14.44180
 112.51785,  15.83346
 112.53790,  17.73943
 112.55795,  18.52456
 112.57801,  17.34337
 112.59806,  19.35898
 112.61811,  17.99073
 112.63816,  13.83418
 112.65822,  18.41221
 112.67827,  19.02606
 112.69832,  15.29273
 112.71837,  17.06342
 112.73843,  19.25707
 112.75848,  21.09520
 112.77853,  19.57523
 112.79858,  17.37918
 112.81864,  19.17357
 112.83869,  16.04633
 112.85874,  15.99746
 112.87879,  15.98996
 112.89885,  16.44452
 112.91890,  16.68773
 112.93895,  17.08891
 112.95900,  16.97560
 112.97906,  15.45801
 112.99911,  17.65628
 113.01916,  17.73802
 113.03922,  19.95627
 113.05927,  17.31844
 113.07932,  18.82300
 113.09937,  15.22348
 113.11943,  16.76632
 113.13948,  19.21649
 113.15953,  15.27797
 113.17958,  15.70412
 113.19964,  17.55473
 113.21969,  18.71466
 113.23974,  17.87831
 113.25980,  14.12817
 113.27985,  17.81912
 113.29991,  17.29404
 113.31996,  18.82483
 113.34001,  18.13826
 113.36006,  19.45623
 113.38012,  19.36292
 113.40017,  17.89381
 113.42022,  15.15620
 113.44028,  18.69778
 113.46033,  16.63424
 113.48038,  16.81604
 113.50044,  14.95286
 113.52049,  18.50346
 113.54055,  19.46708
 113.56060,  18.57483
 113.58065,  16.65660
 113.60071,  19.46692
 113.62076,  18.01095
 113.64081,  22.08445
 113.66087,  19.81147
 113.68092,  19.15353
 113.70098,  15.36732
 113.72103,  16.27212
 113.74108,  16.48579
 113.76114,  19.44276
 113.78119,  17.91797
 113.80124,  16.63714
 113.82130,  17.80234
 113.84135,  17.73973
 113.86141,  17.57823
 113.88146,  17.48934
 113.90151,  15.02495
 113.92157,  16.11344
 113.94162,  17.50333
 113.96168,  14.97746
 113.98173,  18.45576
 114.00178,  18.89877
 114.02184,  17.81288
 114.04189,  21.77749
 114.06195,  19.04560
 114.08200,  19.45318
 114.10206,  17.33650
 114.12211,  16.32258
 114.14217,  18.09314
 114.16222,  18.00731
 114.18227,  19.08933
 114.20233,  19.46342
 114.22238,  19.68172
 114.24244,  15.46255
 114.26249,  14.23705
 114.28255,  15.57804
 114.30260,  17.43581
 114.32266,  18.14404
 114.34271,  18.29661
 114.36277,  19.32250
 114.38282,  18.05494
 114.40287,  15.98950
 114.42293,  17.02771
 114.44298,  17.16665
 114.46304,  18.14994
 114.48310,  17.75270
 114.50315,  20.28104
 114.52320,  18.15733
 114.54326,  19.01929
 114.56332,  14.46172
 114.58337,  17.38732
 114.60342,  19.72441
 114.62348,  19.26344
 114.64353,  18.32357
 114.66359,  18.02183
 114.68365,  18.72486
 114.70370,  19.23411
 114.72375,  19.83492
 114.74381,  17.13926
 114.76387,  18.45710
 114.78392,  19.26070
 114.80398,  19.21263
 114.82403,  17.85506
 114.84409,  17.06741
 114.86414,  18.39671
 114.88420,  19.20065
 114.90426,  19.86059
 114.92431,  18.94266
 114.94437,  19.96603
 114.96442,  19.67689
 114.98448,  18.54785
 115.00453,  17.74537
 115.02459,  18.12016
 115.04465,  16.26030
 115.06470,  15.37695
 115.08476,  14.36943
 115.10481,  16.06253
 115.12487,  19.28611
 115.14492,  20.48833
 115.16498,  17.97008
 115.18504,  16.27062
 115.20509,  20.21568
 115.22515,  18.14275
 115.24520,  18.38380
 115.26526,  19.76137
 115.28531,  18.33901
 115.30537,  17.00990
 115.32543,  16.99773
 115.34548,  18.32321
 115.36554,  17.97520
 115.38560,  15.54311
 115.40565,  18.31092
 115.42571,  17.74451
 115.44577,  16.70514
 115.46582,  20.18895
 115.48588,  18.55260
 115.50594,  16.54787
 115.52599,  17.92864
 115.54605,  19.58756
 115.56611,  20.58205
 115.58616,  18.82078
 115.60622,  19.07225
 115.62627,  18.70728
 115.64633,  17.31997
 115.66639,  20.50751
 115.68644,  19.53965
 115.70650,  16.53321
 115.72656,  18.00609
 115.74661,  21.15615
 115.76667,  21.02022
 115.78673,  18.38726
 115.80678,  23.47571
 115.82684,  21.78298
 115.84690,  21.50433
 115.86696,  24.67722
 115.88701,  24.65240
 115.90707,  25.38862
 115.92713,  28.08204
 115.94719,  28.28410
 115.96724,  27.98014
 115.98730,  31.50570
 116.00736,  33.85109
 116.02741,  35.44535
 116.04747,  33.46996
 116.06753,  33.34650
 116.08759,  36.06123
 116.10764,  42.26351
 116.12770,  39.77743
 116.14776,  33.66534
 116.16782,  40.75716
 116.18787,  39.51674
 116.20793,  39.51731
 116.22799,  35.59468
 116.24805,  35.49943
 116.26810,  34.29550
 116.28816,  34.41209
 116.30822,  35.22805
 116.32828,  31.04106
 116.34834,  29.42028
 116.36839,  29.45219
 116.38845,  29.46434
 116.40851,  28.81656
 116.42857,  29.53220
 116.44863,  34.16459
 116.46868,  32.83444
 116.48874,  28.46637
 116.50880,  32.23342
 116.52886,  31.92213
 116.54891,  33.50810
 116.56897,  34.45298
 116.58903,  31.71645
 116.60909,  30.49522
 116.62915,  29.54256
 116.64921,  31.54553
 116.66927,  33.00221
 116.68932,  32.31521
 116.70938,  27.52347
 116.72944,  25.86200
 116.74950,  25.25094
 116.76956,  24.32780
 116.78962,  26.80827
 116.80968,  23.70134
 116.82973,  27.92012
 116.84979,  25.40355
 116.86985,  23.33011
 116.88991,  22.36643
 116.90997,  24.28850
 116.93003,  20.50183
 116.95009,  21.76239
 116.97015,  21.30994
 116.99020,  22.46995
 117.01026,  20.98539
 117.03032,  18.82429
 117.05038,  22.33979
 117.07044,  21.07495
 117.09050,  18.91183
 117.11056,  21.07511
 117.13062,  20.99315
 117.15067,  17.63582
 117.17074,  20.26456
 117.19079,  19.06885
 117.21085,  19.04394
 117.23091,  18.71996
 117.25097,  20.13263
 117.27103,  18.81924
 117.29109,  19.99969
 117.31115,  18.96184
 117.33121,  20.49540
 117.35127,  19.69155
 117.37133,  20.46880
 117.39139,  19.60664
 117.41145,  20.21087
 117.43151,  19.92968
 117.45157,  19.93687
 117.47163,  20.65476
 117.49169,  19.62041
 117.51175,  22.85336
 117.53180,  20.55228
 117.55186,  21.50220
 117.57192,  19.35290
 117.59198,  21.89426
 117.61205,  19.37598
 117.63210,  18.12717
 117.65216,  22.33134
 117.67222,  23.31674
 117.69229,  26.38373
 117.71235,  22.60146
 117.73241,  23.06187
 117.75246,  25.32793
 117.77252,  25.35628
 117.79259,  28.12925
 117.81265,  27.29798
 117.83271,  25.73749
 117.85277,  28.18219
 117.87283,  27.35908
 117.89289,  27.94583
 117.91295,  26.47442
 117.93301,  27.97568
 117.95307,  25.27279
 117.97313,  25.03414
 117.99319,  22.56668
 118.01325,  25.66150
 118.03331,  26.39669
 118.05337,  24.24455
 118.07343,  22.99792
 118.09349,  24.29223
 118.11355,  24.30571
 118.13362,  24.02512
 118.15368,  23.16519
 118.17374,  23.62238
 118.19380,  24.68149
 118.21386,  25.31980
 118.23392,  24.91393
 118.25398,  24.31854
 118.27404,  24.94598
 118.29410,  24.27186
 118.31417,  24.62491
 118.33423,  23.51915
 118.35429,  21.75522
 118.37435,  23.10781
 118.39441,  24.01466
 118.41447,  22.65125
 118.43453,  23.01929
 118.45459,  22.29950
 118.47465,  20.95840
 118.49472,  23.29457
 118.51478,  21.64533
 118.53484,  22.40042
 118.55490,  22.67246
 118.57496,  20.79806
 118.59502,  19.88384
 118.61509,  18.60281
 118.63515,  18.84917
 118.65521,  18.79407
 118.67527,  18.24369
 118.69533,  19.13399
 118.71540,  20.22941
 118.73546,  18.40953
 118.75552,  21.47770
 118.77558,  19.62223
 118.79564,  18.05859
 118.81571,  19.67541
 118.83577,  19.89727
 118.85583,  16.07269
 118.87589,  17.51422
 118.89595,  18.03041
 118.91601,  18.79571
 118.93608,  18.81133
 118.95614,  22.32057
 118.97620,  19.39189
 118.99627,  18.39335
 119.01633,  17.58016
 119.03639,  18.58555
 119.05645,  20.88545
 119.07651,  19.04970
 119.09658,  18.54993
 119.11664,  20.03031
 119.13670,  17.12985
 119.15677,  20.58098
 119.17683,  17.53016
 119.19689,  19.59138
 119.21695,  19.90530
 119.23702,  19.00584
 119.25708,  16.49165
 119.27714,  17.91414
 119.29721,  17.03085
 119.31727,  17.42363
 119.33733,  17.87214
 119.35740,  18.34050
 119.37746,  17.56703
 119.39752,  19.57415
 119.41758,  14.64280
 119.43765,  17.17011
