# 2Theta,Counts
  36.97081,  53.82910
  36.99083,  53.32397
  37.01084,  48.06296
  37.03086,  59.43479
  37.05088,  57.34739
  37.07090,  55.01691
  37.09092,  60.07960
  37.11093,  54.66790
  37.13095,  54.12143
  37.15097,  52.17901
  37.17099,  53.50946
  37.19100,  51.00906
  37.21102,  49.36788
  37.23104,  53.74485
  37.25106,  54.49613
  37.27108,  51.88609
  37.29110,  43.93457
  37.31111,  49.94543
  37.33113,  49.85531
  37.35115,  51.35379
  37.37117,  47.38941
  37.39118,  55.32377
  37.41120,  56.17003
  37.43122,  56.12390
  37.45124,  49.92878
  37.47126,  54.83793
  37.49127,  52.85139
  37.51129,  50.16779
  37.53131,  46.60665
  37.55133,  48.77250
  37.57135,  53.50307
  37.59136,  50.13725
  37.61138,  54.04080
  37.63140,  55.79308
  37.65142,  52.12604
  37.67144,  55.86952
  37.69145,  60.54551
  37.71147,  57.15917
  37.73149,  55.35450
  37.75151,  51.67768
  37.77153,  49.16730
  37.79154,  54.19895
  37.81156,  51.79389
  37.83158,  51.86138
  37.85160,  50.19846
  37.87162,  51.82461
  37.89163,  53.68123
  37.91165,  52.92264
  37.93167,  50.05047
  37.95169,  47.91901
  37.97171,  52.28973
  37.99172,  53.74956
  38.01174,  52.40685
  38.03176,  50.02609
  38.05178,  54.29669
  38.07180,  54.42762
  38.09181,  52.88807
  38.11183,  51.86345
  38.13185,  54.63358
  38.15187,  51.67520
  38.17189,  55.13176
  38.19190,  52.98390
  38.21192,  46.34459
  38.23194,  51.82813
  38.25196,  50.08195
  38.27198,  52.25929
  38.29199,  51.80321
  38.31201,  44.50588
  38.33203,  44.91468
  38.35205,  50.29352
  38.37207,  53.06347
  38.39208,  48.31554
  38.41210,  50.58637
  38.43212,  50.54123
  38.45214,  50.27990
  38.47216,  50.19577
  38.49217,  42.90132
  38.51219,  46.71971
  38.53221,  50.43022
  38.55223,  50.46343
  38.57225,  45.07692
  38.59227,  45.61729
  38.61228,  47.85630
  38.63230,  46.46789
  38.65232,  47.21081
  38.67234,  51.63048
  38.69236,  48.22461
  38.71237,  49.53763
  38.73239,  53.99861
  38.75241,  58.20230
  38.77243,  47.53933
  38.79245,  53.37570
  38.81246,  53.21889
  38.83248,  46.71711
  38.85250,  51.43250
  38.87252,  54.42198
  38.89254,  48.21253
  38.91255,  47.98859
  38.93257,  49.29995
  38.95259,  47.95215
  38.97261,  49.57436
  38.99263,  44.07695
  39.01265,  50.69046
  39.03266,  47.26681
  39.05268,  48.77607
  39.07270,  49.39066
  39.09272,  46.25704
  39.11274,  56.32735
  39.13275,  51.51848
  39.15277,  49.73758
  39.17279,  49.86715
  39.19281,  46.77021
  39.21283,  51.36724
  39.23284,  50.73418
  39.25286,  50.51761
  39.27288,  48.62396
  39.29290,  50.21983
  39.31292,  52.37393
  39.33293,  45.52272
  39.35295,  46.27752
  39.37297,  47.32431
  39.39299,  47.39180
  39.41301,  48.38719
  39.43303,  49.50637
  39.45304,  53.47480
  39.47306,  55.47740
  39.49308,  53.93850
  39.51310,  50.64414
  39.53312,  47.60583
  39.55313,  46.36668
  39.57315,  51.96983
  39.59317,  49.90917
  39.61319,  53.85755
  39.63321,  47.39348
  39.65323,  41.07477
  39.67324,  44.20126
  39.69326,  44.18395
  39.71328,  46.38920
  39.73330,  45.46784
  39.75332,  42.34687
  39.77334,  47.39956
  39.79335,  51.03014
  39.81337,  54.50352
  39.83339,  48.83062
  39.85341,  50.59106
  39.87343,  45.37687
  39.89344,  43.06045
  39.91346,  51.69185
  39.93348,  50.98948
  39.95350,  45.40672
  39.97352,  48.10326
  39.99354,  44.09429
  40.01355,  48.75521
  40.03357,  44.15435
  40.05359,  47.03262
  40.07361,  48.37835
  40.09363,  46.78256
  40.11364,  47.28306
  40.13366,  41.81246
  40.15368,  54.86208
  40.17370,  45.36224
  40.19372,  45.60719
  40.21374,  45.28252
  40.23375,  46.63939
  40.25377,  49.33673
  40.27379,  52.51844
  40.29381,  49.21737
  40.31383,  49.51522
  40.33385,  44.54458
  40.35386,  49.29106
  40.37388,  49.50406
  40.39390,  48.57351
  40.41392,  48.51017
  40.43394,  49.41705
  40.45396,  54.23467
  40.47397,  45.67353
  40.49399,  45.41811
  40.51401,  53.17284
  40.53403,  47.92506
  40.55405,  46.76924
  40.57406,  47.94827
  40.59408,  50.63035
  40.61410,  48.04409
  40.63412,  45.60348
  40.65414,  48.06361
  40.67416,  42.73399
  40.69418,  44.36948
  40.71419,  46.22127
  40.73421,  53.08766
  40.75423,  49.46538
  40.77425,  45.40582
  40.79427,  45.27418
  40.81428,  46.32502
  40.83430,  47.95746
  40.85432,  42.22089
  40.87434,  47.88408
  40.89436,  53.01474
  40.91438,  51.91270
  40.93439,  49.39608
  40.95441,  46.33639
  40.97443,  45.48217
  40.99445,  46.32753
  41.01447,  49.91735
  41.03449,  46.72971
  41.05450,  46.19523
  41.07452,  51.63083
  41.09454,  50.93799
  41.11456,  46.32645
  41.13458,  54.76249
  41.15460,  49.18463
  41.17461,  45.29513
  41.19463,  46.44745
  41.21465,  48.83266
  41.23467,  48.70534
  41.25469,  51.58748
  41.27471,  47.39704
  41.29472,  46.71583
  41.31474,  53.77361
  41.33476,  53.61988
  41.35478,  51.10978
  41.37480,  46.03240
  41.39482,  44.38944
  41.41484,  46.51299
  41.43485,  47.01284
  41.45487,  48.82247
  41.47489,  43.84331
  41.49491,  44.29837
  41.51493,  43.87184
  41.53495,  42.64781
  41.55496,  41.03213
  41.57498,  44.33659
  41.59500,  44.62409
  41.61502,  50.47008
  41.63504,  44.84369
  41.65506,  46.28137
  41.67507,  49.38452
  41.69509,  45.93493
  41.71511,  49.76227
  41.73513,  48.89165
  41.75515,  48.87981
  41.77517,  49.78609
  41.79519,  48.99123
  41.81520,  50.43299
  41.83522,  53.74595
  41.85524,  47.86358
  41.87526,  51.54664
  41.89528,  49.52535
  41.91530,  48.16788
  41.93532,  51.39510
  41.95533,  46.99778
  41.97535,  47.53106
  41.99537,  46.12600
  42.01539,  45.80090
  42.03541,  41.54879
  42.05543,  45.92260
  42.07544,  49.18005
  42.09546,  53.05836
  42.11548,  48.64798
  42.13550,  51.16277
  42.15552,  51.95362
  42.17554,  50.34276
  42.19556,  43.31303
  42.21557,  48.50597
  42.23559,  49.81911
  42.25561,  44.08374
  42.27563,  49.75594
  42.29565,  50.16530
  42.31567,  45.30029
  42.33568,  42.27372
  42.35570,  46.31585
  42.37572,  43.88539
  42.39574,  45.87947
  42.41576,  49.19567
  42.43578,  47.24698
  42.45580,  46.00777
  42.47581,  48.10499
  42.49583,  45.39928
  42.51585,  51.96070
  42.53587,  50.85908
  42.55589,  57.12909
  42.57591,  48.69263
  42.59593,  47.91860
  42.61594,  51.38183
  42.63596,  48.31614
  42.65598,  45.61499
  42.67600,  46.87052
  42.69602,  49.03632
  42.71604,  51.70791
  42.73605,  52.30506
  42.75607,  54.13055
  42.77609,  42.90009
  42.79611,  48.01156
  42.81613,  50.89379
  42.83615,  49.97233
  42.85617,  51.34072
  42.87618,  52.20950
  42.89620,  48.95587
  42.91622,  56.09074
  42.93624,  57.73352
  42.95626,  49.96337
  42.97628,  53.62088
  42.99630,  54.51366
  43.01632,  55.13289
  43.03633,  56.68460
  43.05635,  56.76881
  43.07637,  51.65396
  43.09639,  58.95715
  43.11641,  55.20518
  43.13643,  54.64615
  43.15645,  65.64314
  43.17646,  62.21714
  43.19648,  58.22087
  43.21650,  64.39352
  43.23652,  66.70232
  43.25654,  72.82501
  43.27656,  76.51289
  43.29658,  83.24409
  43.31659,  85.12358
  43.33661,  92.51117
  43.35663,  95.14826
  43.37665, 105.55737
  43.39667, 132.31305
  43.41669, 165.18188
  43.43671, 212.21282
  43.45672, 277.02405
  43.47674, 392.71686
  43.49676, 520.19511
  43.51678, 675.30900
  43.53680, 806.14894
  43.55682, 893.22669
  43.57684, 953.04594
  43.59686, 984.62219
  43.61687, 961.25254
  43.63689, 919.94784
  43.65691, 856.68854
  43.67693, 763.37475
  43.69695, 646.98426
  43.71697, 561.31713
  43.73699, 479.78783
  43.75700, 386.95106
  43.77702, 313.37722
  43.79704, 262.15513
  43.81706, 190.94478
  43.83708, 155.35219
  43.85710, 126.76912
  43.87712, 104.11297
  43.89714,  94.11196
  43.91715,  89.73233
  43.93717,  84.79457
  43.95719,  80.72671
  43.97721,  68.42404
  43.99723,  67.20217
  44.01725,  69.22130
  44.03727,  67.12282
  44.05729,  68.06911
  44.07730,  58.31505
  44.09732,  65.41478
  44.11734,  64.16822
  44.13736,  64.54503
  44.15738,  70.21626
  44.17740,  67.90475
  44.19742,  63.06268
  44.21744,  68.68633
  44.23745,  77.10583
  44.25747,  79.45267
  44.27749,  82.09199
  44.29751,  87.41528
  44.31753,  94.05888
  44.33755, 103.51567
  44.35757, 105.42398
  44.37759, 126.85443
  44.39761, 146.65021
  44.41762, 173.87919
  44.43764, 209.75987
  44.45766, 245.32740
  44.47768, 331.19088
  44.49770, 437.70687
  44.51772, 574.03553
  44.53774, 734.40435
  44.55776, 909.28826
  44.57777,1077.33300
  44.59779,1220.29800
  44.61781,1302.75490
  44.63783,1297.44300
  44.65785,1301.67360
  44.67787,1247.55010
  44.69789,1180.48060
  44.71791,1043.95280
  44.73792, 899.75884
  44.75794, 770.55471
  44.77796, 645.45081
  44.79798, 536.88557
  44.81800, 411.99063
  44.83802, 320.72334
  44.85804, 253.85054
  44.87806, 194.02700
  44.89807, 161.71892
  44.91809, 121.54098
  44.93811,  97.63702
  44.95813,  94.10756
  44.97815,  81.93909
  44.99817,  70.42126
  45.01819,  73.71771
  45.03821,  68.74738
  45.05823,  68.43237
  45.07824,  56.51989
  45.09826,  56.48602
  45.11828,  54.49903
  45.13830,  53.17453
  45.15832,  53.20388
  45.17834,  53.88351
  45.19836,  51.54495
  45.21838,  53.55889
  45.23840,  51.88812
  45.25841,  50.22353
  45.27843,  49.46164
  45.29845,  49.74510
  45.31847,  55.63598
  45.33849,  46.11550
  45.35851,  45.54519
  45.37853,  45.39711
  45.39855,  43.54506
  45.41857,  42.45090
  45.43859,  42.01887
  45.45860,  40.39015
  45.47862,  49.11988
  45.49864,  41.15859
  45.51866,  44.92154
  45.53868,  39.73300
  45.55870,  41.63786
  45.57872,  42.59743
  45.59874,  46.21662
  45.61876,  40.23648
  45.63877,  38.09802
  45.65879,  41.37543
  45.67881,  41.78521
  45.69883,  42.41517
  45.71885,  45.73800
  45.73887,  46.77656
  45.75889,  40.31616
  45.77891,  39.48755
  45.79892,  44.64394
  45.81894,  46.59186
  45.83896,  45.47681
  45.85898,  39.06961
  45.87900,  42.33972
  45.89902,  49.82289
  45.91904,  40.33668
  45.93906,  39.79076
  45.95908,  44.18810
  45.97910,  38.52153
  45.99912,  42.26299
  46.01913,  38.15078
  46.03915,  39.55242
  46.05917,  41.13518
  46.07919,  39.77755
  46.09921,  42.11391
  46.11923,  45.43086
  46.13925,  41.19952
  46.15927,  42.82863
  46.17929,  38.51646
  46.19931,  43.43695
  46.21932,  39.62795
  46.23934,  42.53806
  46.25936,  38.21499
  46.27938,  44.30570
  46.29940,  43.18542
  46.31942,  39.95737
  46.33944,  42.26074
  46.35946,  35.74658
  46.37948,  39.00644
  46.39950,  43.79106
  46.41952,  42.69518
  46.43953,  44.50368
  46.45955,  38.61257
  46.47957,  38.59988
  46.49959,  39.72135
  46.51961,  42.81778
  46.53963,  37.35873
  46.55965,  33.28395
  46.57967,  36.85491
  46.59969,  37.81187
  46.61971,  34.19827
  46.63972,  35.66196
  46.65974,  40.80178
  46.67976,  39.34932
  46.69978,  35.59490
  46.71980,  36.62907
  46.73982,  41.48045
  46.75984,  38.24991
  46.77986,  36.95016
  46.79988,  36.03614
  46.81990,  37.03014
  46.83992,  40.72666
  46.85994,  46.41597
  46.87995,  43.99796
  46.89997,  40.33434
  46.91999,  41.02913
  46.94001,  39.14205
  46.96003,  41.80756
  46.98005,  38.94637
  47.00007,  40.09106
  47.02009,  40.19497
  47.04011,  43.38919
  47.06013,  37.25502
  47.08015,  37.64875
  47.10016,  36.63400
  47.12018,  38.69938
  47.14020,  40.25209
  47.16022,  38.00884
  47.18024,  43.61659
  47.20026,  33.40565
  47.22028,  35.64965
  47.24030,  34.04417
  47.26032,  34.24490
  47.28034,  36.20458
  47.30036,  34.22722
  47.32037,  35.22080
  47.34040,  38.45565
  47.36041,  34.19839
  47.38043,  38.41087
  47.40045,  38.59132
  47.42047,  37.03614
  47.44049,  37.96192
  47.46051,  39.32833
  47.48053,  36.24373
  47.50055,  37.99104
  47.52057,  35.82882
  47.54059,  37.26302
  47.56061,  41.25953
  47.58062,  40.25426
  47.60064,  36.60136
  47.62066,  42.42055
  47.64068,  41.85168
  47.66070,  38.36768
  47.68072,  36.02897
  47.70074,  37.98780
  47.72076,  41.53303
  47.74078,  38.94320
  47.76080,  41.12583
  47.78082,  36.22293
  47.80084,  36.23221
  47.82086,  35.06011
  47.84088,  36.89215
  47.86089,  32.32393
  47.88091,  36.41172
  47.90093,  35.27159
  47.92095,  36.68712
  47.94097,  35.45577
  47.96099,  39.14552
  47.98101,  35.60524
  48.00103,  37.04255
  48.02105,  35.49296
  48.04107,  39.18175
  48.06109,  34.75952
  48.08111,  35.86876
  48.10113,  38.13784
  48.12115,  39.78990
  48.14117,  38.59008
  48.16118,  35.34365
  48.18120,  36.76535
  48.20122,  38.31292
  48.22124,  38.51974
  48.24126,  37.93605
  48.26128,  35.74615
  48.28130,  40.17728
  48.30132,  39.59345
  48.32134,  38.76171
  48.34136,  37.52081
  48.36138,  38.88660
  48.38140,  40.60813
  48.40142,  38.90250
  48.42144,  38.60972
  48.44145,  37.87755
  48.46147,  33.36914
  48.48149,  38.35353
  48.50151,  37.34260
  48.52153,  37.04181
  48.54155,  32.70025
  48.56157,  40.29480
  48.58159,  38.69353
  48.60161,  34.87633
  48.62163,  38.17741
  48.64165,  35.87759
  48.66167,  41.13560
  48.68169,  42.42841
  48.70171,  39.71923
  48.72173,  33.10800
  48.74175,  39.87633
  48.76176,  37.33591
  48.78178,  33.00914
  48.80180,  34.46541
  48.82182,  36.83622
  48.84184,  35.95655
  48.86186,  40.22105
  48.88188,  37.42361
  48.90190,  37.36378
  48.92192,  35.52078
  48.94194,  33.72213
  48.96196,  40.97883
  48.98198,  34.91312
  49.00200,  33.17521
  49.02202,  38.32947
  49.04204,  39.20851
  49.06206,  38.13543
  49.08208,  40.35554
  49.10210,  34.58862
  49.12212,  33.96636
  49.14213,  35.84924
  49.16215,  40.31124
  49.18217,  35.88507
  49.20219,  36.13408
  49.22221,  36.50914
  49.24223,  34.65358
  49.26225,  36.37327
  49.28227,  36.40833
  49.30229,  36.93992
  49.32231,  37.68458
  49.34233,  38.88864
  49.36235,  40.01142
  49.38237,  34.96207
  49.40239,  41.04925
  49.42241,  40.57033
  49.44243,  34.91372
  49.46245,  30.79089
  49.48247,  31.62073
  49.50249,  36.82048
  49.52250,  36.51182
  49.54252,  33.73313
  49.56254,  31.80153
  49.58256,  38.15798
  49.60258,  37.46108
  49.62260,  36.65523
  49.64262,  36.70956
  49.66264,  37.21336
  49.68266,  35.73575
  49.70268,  37.59283
  49.72270,  39.46878
  49.74272,  38.69514
  49.76274,  38.09451
  49.78276,  39.80842
  49.80278,  36.82371
  49.82280,  37.87803
  49.84282,  37.58725
  49.86284,  36.05495
  49.88286,  43.12437
  49.90288,  40.69829
  49.92289,  35.23620
  49.94292,  35.78506
  49.96293,  38.28712
  49.98295,  38.32369
  50.00297,  38.23074
  50.02299,  39.30545
  50.04301,  43.05684
  50.06303,  45.07941
  50.08305,  38.48147
  50.10307,  41.79411
  50.12309,  46.56349
  50.14311,  41.99825
  50.16313,  39.94961
  50.18315,  46.23813
  50.20317,  42.26280
  50.22319,  44.65880
  50.24321,  48.82386
  50.26323,  45.15304
  50.28325,  44.74472
  50.30327,  46.65754
  50.32329,  50.79513
  50.34331,  47.94882
  50.36333,  51.39625
  50.38335,  60.03147
  50.40337,  61.16075
  50.42339,  60.37684
  50.44341,  64.67337
  50.46343,  72.75853
  50.48345,  77.05059
  50.50346,  78.72623
  50.52348,  92.98554
  50.54350, 105.87155
  50.56352, 110.34007
  50.58354, 130.05357
  50.60356, 157.48229
  50.62358, 186.95415
  50.64360, 220.20098
  50.66362, 258.26549
  50.68364, 307.35132
  50.70366, 339.67123
  50.72368, 362.18683
  50.74370, 377.89899
  50.76372, 369.33945
  50.78374, 376.28633
  50.80376, 349.86905
  50.82378, 323.09723
  50.84380, 306.74291
  50.86382, 275.54696
  50.88384, 246.22077
  50.90386, 213.15973
  50.92388, 186.83370
  50.94390, 164.79313
  50.96392, 133.14358
  50.98394, 111.46447
  51.00396,  96.22538
  51.02398,  75.66732
  51.04400,  58.98884
  51.06402,  53.99847
  51.08404,  55.24319
  51.10406,  50.63398
  51.12408,  46.58670
  51.14410,  40.32294
  51.16412,  40.02415
  51.18414,  40.87923
  51.20416,  38.11274
  51.22418,  37.30218
  51.24419,  40.39611
  51.26422,  36.43475
  51.28423,  39.35192
  51.30425,  37.00539
  51.32427,  36.19415
  51.34429,  35.81262
  51.36431,  39.02079
  51.38433,  39.57418
  51.40435,  37.84196
  51.42437,  33.71503
  51.44439,  33.84920
  51.46441,  36.25393
  51.48443,  38.84394
  51.50445,  34.21074
  51.52447,  39.11311
  51.54449,  31.39667
  51.56451,  37.11560
  51.58453,  37.25156
  51.60455,  31.77388
  51.62457,  31.32185
  51.64459,  38.04366
  51.66461,  35.41236
  51.68463,  32.53608
  51.70465,  31.87268
  51.72467,  35.39960
  51.74469,  35.00419
  51.76471,  37.75435
  51.78473,  29.00444
  51.80475,  33.54341
  51.82477,  33.47393
  51.84479,  33.22055
  51.86481,  35.83294
  51.88483,  34.68291
  51.90485,  31.91340
  51.92487,  28.67690
  51.94489,  34.66003
  51.96491,  34.53503
  51.98493,  35.54537
  52.00495,  33.55123
  52.02497,  33.61705
  52.04499,  29.19018
  52.06501,  30.88514
  52.08503,  30.44924
  52.10505,  29.28512
  52.12507,  30.42617
  52.14509,  28.74389
  52.16511,  31.41157
  52.18513,  34.57437
  52.20515,  34.24639
  52.22517,  32.10757
  52.24519,  28.91046
  52.26521,  30.74725
  52.28523,  34.74969
  52.30525,  31.98301
  52.32527,  30.76133
  52.34529,  33.06748
  52.36531,  32.42863
  52.38533,  36.01182
  52.40535,  35.62548
  52.42537,  31.29481
  52.44539,  32.47001
  52.46541,  28.57844
  52.48543,  29.02231
  52.50545,  33.86094
  52.52547,  30.20930
  52.54549,  34.72177
  52.56551,  33.51407
  52.58553,  32.13921
  52.60555,  34.34618
  52.62557,  30.49912
  52.64559,  31.51610
  52.66561,  36.10803
  52.68563,  36.07129
  52.70565,  30.82679
  52.72567,  31.02435
  52.74569,  30.86624
  52.76571,  32.14513
  52.78573,  31.17142
  52.80575,  30.47179
  52.82577,  31.05105
  52.84579,  31.13908
  52.86581,  29.85791
  52.88583,  32.18716
  52.90585,  36.98857
  52.92587,  32.61333
  52.94589,  27.91687
  52.96591,  33.89361
  52.98593,  32.85015
  53.00595,  32.31056
  53.02597,  31.93797
  53.04599,  28.92951
  53.06601,  33.77841
  53.08603,  30.37649
  53.10605,  33.35647
  53.12607,  37.14607
  53.14609,  39.77562
  53.16611,  35.12325
  53.18613,  31.51489
  53.20615,  32.32337
  53.22617,  27.96612
  53.24619,  33.78112
  53.26621,  33.10404
  53.28623,  32.17173
  53.30625,  32.99465
  53.32627,  32.77274
  53.34629,  29.60809
  53.36631,  27.39376
  53.38633,  32.47460
  53.40635,  34.02238
  53.42637,  31.12515
  53.44639,  30.89751
  53.46641,  32.78153
  53.48643,  32.34905
  53.50645,  34.98432
  53.52647,  30.57833
  53.54649,  30.94451
  53.56651,  32.27875
  53.58653,  30.36721
  53.60655,  30.21765
  53.62657,  29.58522
  53.64660,  29.07462
  53.66661,  34.21310
  53.68664,  29.64832
  53.70666,  29.84376
  53.72668,  29.85704
  53.74670,  34.44282
  53.76672,  28.77080
  53.78674,  33.30789
  53.80676,  35.16166
  53.82678,  29.72151
  53.84680,  29.32982
  53.86682,  32.52478
  53.88684,  27.30945
  53.90686,  27.67283
  53.92688,  28.10844
  53.94690,  30.96399
  53.96692,  31.56148
  53.98694,  33.40612
  54.00696,  29.90579
  54.02698,  33.36979
  54.04700,  29.79381
  54.06702,  32.80847
  54.08704,  32.60417
  54.10706,  30.58469
  54.12708,  30.01056
  54.14710,  29.87511
  54.16712,  30.71204
  54.18714,  30.25122
  54.20716,  27.85745
  54.22718,  29.15660
  54.24720,  31.22265
  54.26722,  29.23446
  54.28724,  26.33509
  54.30726,  24.94343
  54.32728,  28.81631
  54.34730,  30.90290
  54.36732,  33.63708
  54.38735,  31.63753
  54.40737,  32.41430
  54.42739,  30.92732
  54.44741,  29.69924
  54.46743,  28.54085
  54.48745,  32.71646
  54.50747,  33.41416
  54.52749,  30.84139
  54.54751,  33.73662
  54.56753,  25.29047
  54.58755,  28.09081
  54.60757,  29.50879
  54.62759,  33.19200
  54.64761,  28.85921
  54.66763,  27.36638
  54.68765,  32.58114
  54.70767,  32.25533
  54.72769,  29.06119
  54.74771,  29.75318
  54.76773,  32.78047
  54.78775,  35.21776
  54.80777,  32.89156
  54.82779,  31.52341
  54.84781,  33.41885
  54.86784,  32.61129
  54.88786,  29.56873
  54.90788,  31.07243
  54.92790,  30.49783
  54.94792,  30.88614
  54.96794,  32.73539
  54.98796,  31.32408
  55.00798,  29.57815
  55.02800,  30.46975
  55.04802,  30.91909
  55.06804,  27.57955
  55.08806,  31.54647
  55.10808,  31.04327
  55.12810,  28.48566
  55.14812,  28.46605
  55.16814,  32.07848
  55.18816,  28.42929
  55.20818,  29.34342
  55.22820,  30.81443
  55.24822,  28.47117
  55.26824,  29.70657
  55.28826,  30.25040
  55.30829,  27.18989
  55.32831,  27.07899
  55.34833,  29.88718
  55.36835,  29.44116
  55.38837,  32.33698
  55.40839,  31.69550
  55.42841,  27.24477
  55.44843,  29.61775
  55.46845,  27.15092
  55.48847,  29.89668
  55.50849,  30.45472
  55.52851,  32.75344
  55.54853,  28.74822
  55.56855,  31.17530
  55.58857,  28.21571
  55.60859,  26.54162
  55.62861,  29.30524
  55.64864,  31.70976
  55.66866,  28.78548
  55.68868,  27.18657
  55.70870,  27.92495
  55.72872,  28.60006
  55.74874,  28.65130
  55.76876,  26.13072
  55.78878,  24.69880
  55.80880,  30.07805
  55.82882,  24.51543
  55.84884,  28.23825
  55.86886,  32.14889
  55.88888,  34.12063
  55.90890,  28.71305
  55.92892,  27.12701
  55.94894,  28.72538
  55.96897,  25.42887
  55.98899,  30.00213
  56.00901,  33.60507
  56.02903,  32.21042
  56.04905,  27.50598
  56.06907,  32.15038
  56.08909,  31.69383
  56.10911,  28.84329
  56.12913,  29.51495
  56.14915,  30.51255
  56.16917,  29.68100
  56.18919,  29.28977
  56.20921,  28.70480
  56.22923,  26.09592
  56.24925,  31.53237
  56.26927,  30.72934
  56.28929,  31.22931
  56.30932,  32.56293
  56.32934,  30.65402
  56.34936,  29.64307
  56.36938,  29.71951
  56.38940,  28.90423
  56.40942,  28.50835
  56.42944,  29.77877
  56.44946,  28.02548
  56.46948,  29.57875
  56.48950,  29.75417
  56.50952,  26.17281
  56.52954,  25.54103
  56.54956,  28.55451
  56.56959,  28.63802
  56.58961,  28.25817
  56.60963,  32.49694
  56.62965,  27.80205
  56.64967,  27.15839
  56.66969,  31.11091
  56.68971,  29.73995
  56.70973,  28.39932
  56.72975,  25.58644
  56.74977,  25.37960
  56.76979,  30.90216
  56.78981,  26.51678
  56.80984,  27.07421
  56.82986,  28.58411
  56.84988,  29.14986
  56.86990,  30.64942
  56.88992,  31.18249
  56.90994,  26.88857
  56.92996,  27.53260
  56.94998,  30.61752
  56.97000,  28.47660
  56.99002,  30.61012
  57.01004,  26.86016
  57.03006,  29.17957
  57.05008,  26.89591
  57.07011,  28.97493
  57.09013,  24.64464
  57.11015,  27.54533
  57.13017,  27.15914
  57.15019,  25.93559
  57.17021,  27.41162
  57.19023,  30.24049
  57.21025,  27.74454
  57.23027,  26.67390
  57.25029,  24.95330
  57.27032,  27.45026
  57.29034,  28.23063
  57.31036,  31.51522
  57.33038,  27.08613
  57.35040,  26.51902
  57.37042,  31.31444
  57.39044,  31.14469
  57.41046,  29.03865
  57.43048,  30.19854
  57.45050,  25.81192
  57.47052,  25.97005
  57.49054,  28.34995
  57.51056,  29.93713
  57.53059,  30.86530
  57.55061,  29.36749
  57.57063,  31.50872
  57.59065,  31.54088
  57.61067,  28.77710
  57.63069,  26.44088
  57.65071,  26.68916
  57.67073,  26.57216
  57.69075,  25.07220
  57.71078,  32.16914
  57.73080,  27.68932
  57.75082,  24.98804
  57.77084,  28.05547
  57.79086,  26.31414
  57.81088,  27.14206
  57.83090,  28.61735
  57.85092,  27.23012
  57.87094,  28.03780
  57.89096,  29.66569
  57.91099,  28.79893
  57.93101,  27.53537
  57.95103,  28.67851
  57.97105,  29.49716
  57.99107,  29.12073
  58.01109,  25.66616
  58.03111,  28.13031
  58.05113,  27.06409
  58.07115,  30.50791
  58.09117,  27.84614
  58.11119,  27.33220
  58.13122,  24.88936
  58.15124,  25.15493
  58.17126,  28.89922
  58.19128,  26.58470
  58.21130,  28.81834
  58.23132,  28.13881
  58.25134,  27.91377
  58.27136,  28.89102
  58.29138,  30.98447
  58.31141,  28.99582
  58.33143,  25.40975
  58.35145,  26.93615
  58.37147,  28.35936
  58.39149,  24.35232
  58.41151,  26.85198
  58.43153,  32.09489
  58.45155,  26.44963
  58.47158,  25.68860
  58.49160,  28.25103
  58.51162,  24.80544
  58.53164,  28.44459
  58.55166,  26.88576
  58.57168,  27.58791
  58.59170,  28.50188
  58.61172,  27.64772
  58.63174,  25.23408
  58.65177,  28.10908
  58.67179,  32.01666
  58.69181,  31.84221
  58.71183,  26.81273
  58.73185,  30.04636
  58.75187,  33.94074
  58.77189,  32.79136
  58.79191,  30.98439
  58.81194,  28.75397
  58.83196,  30.48663
  58.85198,  29.20247
  58.87200,  24.13470
  58.89202,  29.73862
  58.91204,  31.79253
  58.93206,  30.57657
  58.95208,  31.47640
  58.97210,  31.56888
  58.99213,  28.31744
  59.01215,  27.35117
  59.03217,  29.80064
  59.05219,  24.31877
  59.07221,  26.98215
  59.09223,  30.64812
  59.11225,  27.77014
  59.13228,  28.20007
  59.15230,  26.50873
  59.17232,  28.53981
  59.19234,  27.43689
  59.21236,  26.77165
  59.23238,  26.02501
  59.25240,  25.16305
  59.27242,  24.03425
  59.29244,  26.17152
  59.31247,  31.07874
  59.33249,  29.88834
  59.35251,  29.09478
  59.37253,  26.37757
  59.39255,  25.57445
  59.41257,  23.83857
  59.43259,  29.69940
  59.45262,  29.35895
  59.47264,  25.89799
  59.49266,  31.02652
  59.51268,  26.58392
  59.53270,  27.01353
  59.55272,  24.60045
  59.57274,  26.80458
  59.59277,  23.76643
  59.61279,  26.31907
  59.63281,  28.93335
  59.65283,  28.14948
  59.67285,  26.76977
  59.69287,  27.63238
  59.71289,  26.53180
  59.73291,  27.03620
  59.75294,  24.62801
  59.77296,  20.63923
  59.79298,  29.69637
  59.81300,  24.11225
  59.83302,  24.76733
  59.85304,  23.46582
  59.87307,  24.67380
  59.89309,  24.36800
  59.91311,  25.80149
  59.93313,  23.11544
  59.95315,  23.59118
  59.97317,  28.05542
  59.99319,  26.43428
  60.01322,  28.78047
  60.03324,  27.22290
  60.05326,  25.99900
  60.07328,  29.34313
  60.09330,  28.79553
  60.11332,  29.56747
  60.13334,  24.86662
  60.15337,  28.74580
  60.17339,  25.76220
  60.19341,  26.43882
  60.21343,  26.72596
  60.23345,  27.77241
  60.25347,  27.59392
  60.27349,  29.50539
  60.29352,  27.58851
  60.31354,  28.86360
  60.33356,  28.76047
  60.35358,  30.01572
  60.37360,  27.54851
  60.39362,  28.24790
  60.41365,  26.85230
  60.43367,  27.65124
  60.45369,  24.42345
  60.47371,  24.28905
  60.49373,  24.55820
  60.51375,  25.53279
  60.53378,  25.30260
  60.55380,  23.95464
  60.57382,  27.58109
  60.59384,  31.61228
  60.61386,  29.10849
  60.63388,  26.96482
  60.65390,  24.86672
  60.67393,  24.38104
  60.69395,  25.75379
  60.71397,  26.63881
  60.73399,  21.85842
  60.75401,  26.57069
  60.77403,  28.04170
  60.79406,  26.41974
  60.81408,  23.83626
  60.83410,  25.39518
  60.85412,  27.66633
  60.87414,  26.31292
  60.89416,  29.08172
  60.91419,  29.90849
  60.93421,  27.59557
  60.95423,  28.77955
  60.97425,  29.10947
  60.99427,  22.41521
  61.01429,  24.01436
  61.03431,  27.73943
  61.05434,  25.80039
  61.07436,  28.91747
  61.09438,  26.91994
  61.11440,  22.52540
  61.13442,  23.59377
  61.15445,  26.91331
  61.17447,  30.92667
  61.19449,  25.58271
  61.21451,  24.44973
  61.23453,  25.10211
  61.25456,  26.29544
  61.27458,  26.73062
  61.29460,  25.62761
  61.31462,  26.53930
  61.33464,  29.12192
  61.35466,  24.15274
  61.37469,  25.16455
  61.39471,  28.01461
  61.41473,  24.60848
  61.43475,  22.87947
  61.45477,  25.26934
  61.47479,  25.43289
  61.49482,  27.49622
  61.51484,  26.08594
  61.53486,  27.24460
  61.55488,  27.62482
  61.57490,  25.85976
  61.59492,  23.83516
  61.61495,  25.40492
  61.63497,  25.66403
  61.65499,  26.46411
  61.67501,  26.67003
  61.69503,  22.23131
  61.71506,  24.97179
  61.73508,  26.25199
  61.75510,  26.10286
  61.77512,  24.72221
  61.79514,  23.95729
  61.81516,  26.33707
  61.83519,  23.70224
  61.85521,  24.62245
  61.87523,  24.12637
  61.89525,  25.45176
  61.91527,  28.13229
  61.93530,  28.33742
  61.95532,  22.87674
  61.97534,  23.88740
  61.99536,  23.23189
  62.01538,  26.35959
  62.03541,  29.85939
  62.05543,  28.81278
  62.07545,  24.56216
  62.09547,  23.55792
  62.11549,  28.19351
  62.13552,  26.01873
  62.15554,  23.74156
  62.17556,  23.32298
  62.19558,  26.15863
  62.21560,  26.88194
  62.23562,  29.08377
  62.25565,  28.19143
  62.27567,  27.83058
  62.29569,  23.05048
  62.31571,  23.58567
  62.33573,  23.76612
  62.35576,  25.35949
  62.37578,  24.43331
  62.39580,  26.53491
  62.41582,  26.82101
  62.43585,  30.33862
  62.45587,  27.51769
  62.47589,  25.83938
  62.49591,  27.61603
  62.51593,  28.32700
  62.53595,  25.87487
  62.55598,  23.93799
  62.57600,  26.86097
  62.59602,  26.59240
  62.61604,  26.60688
  62.63607,  26.67229
  62.65609,  26.38582
  62.67611,  29.30309
  62.69613,  30.04688
  62.71615,  24.02138
  62.73618,  23.22360
  62.75620,  24.93784
  62.77622,  25.80871
  62.79624,  28.91452
  62.81626,  26.87672
  62.83629,  24.41922
  62.85631,  25.21075
  62.87633,  26.56915
  62.89635,  27.82334
  62.91637,  21.95244
  62.93640,  23.50197
  62.95642,  27.01601
  62.97644,  24.80067
  62.99646,  24.86980
  63.01648,  24.85577
  63.03651,  25.49755
  63.05653,  26.92223
  63.07655,  23.79327
  63.09657,  26.72320
  63.11660,  23.65639
  63.13662,  25.90051
  63.15664,  26.96769
  63.17666,  26.25935
  63.19668,  26.10770
  63.21671,  26.53898
  63.23673,  26.81110
  63.25675,  24.64406
  63.27677,  22.97645
  63.29680,  27.24712
  63.31682,  22.41176
  63.33684,  23.20285
  63.35686,  26.21563
  63.37688,  24.57686
  63.39691,  24.26011
  63.41693,  23.20571
  63.43695,  23.21497
  63.45697,  25.16813
  63.47700,  23.15008
  63.49702,  25.58879
  63.51704,  25.50894
  63.53706,  24.55891
  63.55708,  27.87534
  63.57711,  30.91943
  63.59713,  25.84396
  63.61715,  27.70951
  63.63717,  28.61986
  63.65720,  23.21869
  63.67722,  23.76370
  63.69724,  25.79082
  63.71726,  26.11497
  63.73729,  27.63446
  63.75731,  24.62100
  63.77733,  21.59335
  63.79735,  27.47743
  63.81737,  26.08844
  63.83740,  22.32320
  63.85742,  28.74185
  63.87744,  24.60756
  63.89746,  23.85498
  63.91749,  25.87946
  63.93751,  21.77156
  63.95753,  23.89622
  63.97755,  24.34824
  63.99758,  28.33633
  64.01760,  25.59998
  64.03762,  22.62608
  64.05764,  24.80343
  64.07767,  26.79338
  64.09769,  25.31507
  64.11771,  23.71478
  64.13773,  24.00442
  64.15775,  23.69772
  64.17778,  27.29719
  64.19780,  27.56317
  64.21782,  26.23585
  64.23785,  22.53092
  64.25787,  25.10599
  64.27789,  28.83846
  64.29791,  26.97190
  64.31793,  29.59380
  64.33796,  24.97968
  64.35798,  26.48806
  64.37800,  24.53075
  64.39802,  25.57601
  64.41805,  25.96449
  64.43807,  26.45283
  64.45809,  27.17556
  64.47811,  23.64091
  64.49814,  25.10085
  64.51816,  24.27176
  64.53818,  23.87503
  64.55820,  25.12050
  64.57823,  28.07354
  64.59825,  26.57646
  64.61827,  27.79424
  64.63830,  25.46885
  64.65832,  31.22019
  64.67834,  29.25047
  64.69836,  28.35285
  64.71839,  30.75839
  64.73841,  35.87997
  64.75843,  34.21035
  64.77845,  38.02249
  64.79848,  33.28747
  64.81850,  41.35278
  64.83852,  39.58600
  64.85854,  40.57116
  64.87857,  43.59075
  64.89859,  47.05273
  64.91861,  46.96332
  64.93863,  44.78343
  64.95866,  39.80835
  64.97868,  36.87521
  64.99870,  40.01118
  65.01872,  38.09894
  65.03875,  38.80735
  65.05877,  36.18840
  65.07879,  34.29463
  65.09881,  36.32964
  65.11884,  33.70121
  65.13886,  33.10861
  65.15888,  32.19386
  65.17890,  34.31828
  65.19893,  33.23455
  65.21895,  31.68419
  65.23897,  26.01066
  65.25900,  24.14501
  65.27902,  27.16261
  65.29904,  26.27593
  65.31906,  25.81281
  65.33909,  26.56841
  65.35911,  25.89539
  65.37913,  24.41246
  65.39916,  23.21775
  65.41918,  24.87189
  65.43920,  23.16593
  65.45922,  27.60263
  65.47925,  24.91050
  65.49927,  25.13363
  65.51929,  23.14742
  65.53931,  25.73720
  65.55934,  24.88574
  65.57936,  25.13801
  65.59938,  23.38527
  65.61941,  24.47265
  65.63943,  22.07426
  65.65945,  27.70327
  65.67947,  27.87066
  65.69950,  23.54947
  65.71952,  25.53791
  65.73954,  26.96639
  65.75957,  26.51274
  65.77959,  26.99775
  65.79961,  25.28137
  65.81963,  23.13531
  65.83966,  24.34288
  65.85968,  24.83273
  65.87970,  24.10404
  65.89972,  24.07290
  65.91975,  24.23919
  65.93977,  22.36861
  65.95979,  25.04673
  65.97982,  26.81243
  65.99984,  23.71879
  66.01986,  25.74685
  66.03988,  27.34909
  66.05991,  20.44381
  66.07993,  20.93071
  66.09995,  23.65082
  66.11998,  24.57861
  66.14000,  23.54406
  66.16002,  24.21812
  66.18004,  26.83274
  66.20007,  23.30787
  66.22009,  22.29978
  66.24011,  22.83464
  66.26014,  20.89856
  66.28016,  21.74997
  66.30018,  24.65556
  66.32021,  23.60051
  66.34023,  24.18076
  66.36025,  23.30346
  66.38027,  23.97664
  66.40030,  22.12151
  66.42032,  20.35220
  66.44034,  22.35376
  66.46037,  25.72254
  66.48039,  24.93491
  66.50041,  24.19955
  66.52044,  23.55610
  66.54046,  23.16192
  66.56048,  27.82107
  66.58051,  25.52247
  66.60053,  23.97010
  66.62055,  24.29041
  66.64057,  24.73589
  66.66060,  23.57055
  66.68062,  21.75214
  66.70064,  24.14869
  66.72067,  25.26968
  66.74069,  23.01351
  66.76071,  25.97958
  66.78074,  24.90927
  66.80076,  26.02394
  66.82078,  23.17669
  66.84080,  23.88960
  66.86083,  23.70470
  66.88085,  22.70094
  66.90087,  23.88381
  66.92090,  26.55911
  66.94092,  25.26689
  66.96094,  21.21598
  66.98097,  24.72223
  67.00099,  22.78153
  67.02101,  25.97823
  67.04104,  22.48845
  67.06106,  23.21674
  67.08108,  22.59644
  67.10111,  24.26121
  67.12113,  22.83716
  67.14115,  22.58785
  67.16118,  21.98963
  67.18120,  24.33146
  67.20122,  23.74137
  67.22124,  22.29033
  67.24127,  26.68918
  67.26129,  24.73142
  67.28131,  24.75429
  67.30134,  22.72693
  67.32136,  25.15577
  67.34138,  22.69154
  67.36141,  23.88052
  67.38143,  23.96212
  67.40145,  23.35054
  67.42148,  20.18267
  67.44150,  22.35170
  67.46152,  24.58876
  67.48155,  23.33280
  67.50157,  23.11160
  67.52159,  27.06878
  67.54162,  25.45992
  67.56164,  24.06179
  67.58166,  23.01948
  67.60169,  23.07878
  67.62171,  24.27989
  67.64173,  24.92249
  67.66176,  22.98031
  67.68178,  23.68680
  67.70180,  26.52259
  67.72183,  23.24996
  67.74185,  21.08215
  67.76187,  21.89333
  67.78190,  21.51305
  67.80192,  25.01799
  67.82194,  21.83148
  67.84197,  24.08422
  67.86199,  24.98132
  67.88201,  24.83534
  67.90204,  26.05714
  67.92206,  23.11863
  67.94208,  22.91971
  67.96211,  23.99433
  67.98213,  23.63417
  68.00215,  22.74029
  68.02218,  27.61298
  68.04220,  20.28445
  68.06222,  21.42158
  68.08225,  22.62639
  68.10227,  22.39381
  68.12229,  22.28619
  68.14232,  23.84277
  68.16234,  23.89568
  68.18236,  21.24229
  68.20239,  21.03794
  68.22241,  22.00079
  68.24243,  23.99977
  68.26246,  23.49274
  68.28248,  24.16904
  68.30251,  23.69333
  68.32253,  23.63264
  68.34255,  24.07926
  68.36258,  24.26696
  68.38260,  24.23591
  68.40262,  22.73356
  68.42265,  23.89738
  68.44267,  23.62823
  68.46269,  24.20200
  68.48272,  20.97622
  68.50274,  23.02782
  68.52276,  24.79622
  68.54279,  22.78998
  68.56281,  21.66734
  68.58283,  24.27964
  68.60286,  22.05832
  68.62288,  25.97693
  68.64291,  21.98547
  68.66293,  20.76585
  68.68295,  22.66600
  68.70298,  25.39014
  68.72300,  23.43023
  68.74302,  24.70418
  68.76305,  22.27633
  68.78307,  21.25044
  68.80310,  23.42294
  68.82312,  22.43220
  68.84314,  20.88110
  68.86317,  22.65415
  68.88319,  23.55098
  68.90321,  24.35588
  68.92324,  25.05552
  68.94326,  23.01343
  68.96328,  23.79596
  68.98331,  24.32746
  69.00333,  23.69199
  69.02335,  25.63090
  69.04338,  25.72376
  69.06340,  22.99188
  69.08343,  22.26434
  69.10345,  22.64499
  69.12347,  25.35504
  69.14350,  25.13760
  69.16352,  26.27679
  69.18355,  27.32521
  69.20357,  26.63312
  69.22359,  25.56373
  69.24362,  23.93094
  69.26364,  23.67102
  69.28366,  22.64298
  69.30369,  23.87841
  69.32371,  24.07594
  69.34373,  21.22194
  69.36376,  25.02833
  69.38378,  23.04722
  69.40381,  26.72248
  69.42383,  21.72496
  69.44385,  23.21463
  69.46388,  23.65047
  69.48390,  25.25039
  69.50393,  22.47471
  69.52395,  23.77160
  69.54397,  25.06052
  69.56400,  24.89984
  69.58402,  22.82279
  69.60405,  23.55994
  69.62407,  24.50162
  69.64409,  24.14523
  69.66412,  22.92809
  69.68414,  23.11644
  69.70416,  25.16625
  69.72419,  22.72546
  69.74421,  22.95086
  69.76424,  26.08773
  69.78426,  22.72667
  69.80428,  21.86556
  69.82431,  21.76064
  69.84433,  25.47311
  69.86436,  20.40468
  69.88438,  21.52560
  69.90440,  23.15329
  69.92443,  23.04351
  69.94445,  22.19633
  69.96448,  21.69872
  69.98450,  26.60834
  70.00452,  26.99937
  70.02455,  22.70045
  70.04457,  20.35993
  70.06460,  20.67250
  70.08462,  25.16109
  70.10464,  21.57602
  70.12467,  25.17599
  70.14469,  25.03200
  70.16472,  22.73171
  70.18474,  24.60385
  70.20476,  23.03052
  70.22479,  22.77393
  70.24481,  21.68011
  70.26484,  21.76271
  70.28486,  23.58489
  70.30488,  23.39785
  70.32491,  23.35309
  70.34493,  21.80468
  70.36496,  24.80647
  70.38498,  23.49128
  70.40500,  24.25408
  70.42503,  22.48326
  70.44505,  21.03557
  70.46508,  24.04658
  70.48510,  25.62590
  70.50513,  22.47915
  70.52515,  22.34286
  70.54517,  24.44138
  70.56520,  20.47192
  70.58522,  18.50747
  70.60525,  25.38628
  70.62527,  25.67976
  70.64529,  24.89890
  70.66532,  24.22834
  70.68534,  24.63175
  70.70537,  24.11426
  70.72539,  26.58348
  70.74542,  22.79068
  70.76544,  23.25510
  70.78546,  22.54225
  70.80549,  21.00566
  70.82551,  22.44341
  70.84554,  21.31710
  70.86556,  21.37857
  70.88558,  20.67937
  70.90561,  23.73096
  70.92563,  23.33203
  70.94566,  23.51347
  70.96568,  22.57110
  70.98571,  22.48528
  71.00573,  23.08498
  71.02575,  22.54695
  71.04578,  23.80518
  71.06580,  23.28262
  71.08583,  22.31403
  71.10585,  22.04466
  71.12588,  23.23128
  71.14590,  24.27339
  71.16592,  21.31987
  71.18595,  23.43427
  71.20597,  24.76082
  71.22600,  22.18598
  71.24602,  24.19923
  71.26605,  21.10181
  71.28607,  23.82289
  71.30609,  23.05569
  71.32612,  25.22968
  71.34614,  25.03747
  71.36617,  23.83303
  71.38619,  24.49545
  71.40622,  23.61513
  71.42624,  23.63619
  71.44627,  22.37804
  71.46629,  24.60825
  71.48632,  25.96137
  71.50634,  23.58151
  71.52636,  25.71109
  71.54639,  22.74093
  71.56641,  23.15361
  71.58644,  22.06294
  71.60646,  19.72330
  71.62649,  21.85698
  71.64651,  21.99515
  71.66653,  22.38690
  71.68656,  24.03141
  71.70658,  23.05356
  71.72661,  21.29803
  71.74663,  23.98009
  71.76666,  20.12912
  71.78668,  26.26437
  71.80671,  21.79827
  71.82673,  23.12881
  71.84675,  23.10004
  71.86678,  19.18530
  71.88680,  21.64097
  71.90683,  22.04512
  71.92685,  26.62280
  71.94688,  25.28951
  71.96690,  22.85758
  71.98693,  20.11549
  72.00695,  19.27220
  72.02698,  23.34887
  72.04700,  20.10462
  72.06703,  19.47165
  72.08705,  22.56846
  72.10707,  25.17852
  72.12710,  23.72679
  72.14712,  21.98855
  72.16715,  22.10491
  72.18717,  23.34996
  72.20720,  24.21154
  72.22722,  22.63678
  72.24725,  22.38403
  72.26727,  21.93135
  72.28730,  23.09390
  72.30732,  24.80085
  72.32735,  18.49057
  72.34737,  20.48832
  72.36740,  23.87422
  72.38742,  25.30851
  72.40745,  25.01401
  72.42747,  21.20026
  72.44749,  22.69739
  72.46752,  22.14389
  72.48754,  24.62926
  72.50757,  21.33512
  72.52759,  22.18668
  72.54762,  21.64954
  72.56764,  25.52737
  72.58767,  26.58295
  72.60769,  26.20409
  72.62772,  23.72980
  72.64774,  23.37059
  72.66777,  24.47607
  72.68779,  22.59166
  72.70782,  23.80721
  72.72784,  24.35927
  72.74787,  21.74219
  72.76789,  22.01773
  72.78792,  22.96923
  72.80794,  21.53299
  72.82797,  24.66013
  72.84799,  23.69404
  72.86802,  20.55181
  72.88804,  21.37870
  72.90806,  18.58193
  72.92809,  21.16135
  72.94812,  21.10854
  72.96814,  20.02332
  72.98817,  21.16227
  73.00819,  24.26389
  73.02821,  26.46237
  73.04824,  24.28888
  73.06826,  24.30107
  73.08829,  21.31986
  73.10831,  23.97950
  73.12834,  23.40303
  73.14836,  24.62298
  73.16839,  23.19598
  73.18841,  23.81727
  73.20844,  23.83124
  73.22846,  22.57231
  73.24849,  21.99586
  73.26851,  21.78728
  73.28854,  24.72197
  73.30856,  23.74915
  73.32859,  26.23925
  73.34861,  23.77047
  73.36864,  24.45061
  73.38866,  22.06169
  73.40869,  21.99517
  73.42872,  24.03618
  73.44874,  21.41427
  73.46876,  21.23271
  73.48879,  23.00132
  73.50881,  19.98120
  73.52884,  19.78193
  73.54887,  22.90012
  73.56889,  24.72958
  73.58891,  24.89617
  73.60894,  25.97972
  73.62896,  21.91381
  73.64899,  22.19964
  73.66902,  21.08017
  73.68904,  23.13095
  73.70907,  22.78258
  73.72909,  22.96706
  73.74912,  24.59772
  73.76914,  22.96110
  73.78917,  25.34063
  73.80919,  24.01861
  73.82922,  24.83292
  73.84924,  22.68424
  73.86927,  26.98002
  73.88929,  23.70441
  73.90932,  23.42452
  73.92934,  26.77737
  73.94937,  22.80851
  73.96939,  24.40215
  73.98942,  22.66510
  74.00944,  23.33170
  74.02947,  24.43847
  74.04949,  24.38294
  74.06952,  22.68317
  74.08954,  23.62851
  74.10957,  23.75051
  74.12959,  22.82605
  74.14962,  22.99351
  74.16965,  27.15992
  74.18967,  28.56848
  74.20970,  24.14887
  74.22972,  26.07964
  74.24975,  26.11205
  74.26977,  26.58524
  74.28980,  24.35116
  74.30982,  26.02538
  74.32985,  32.11277
  74.34987,  31.15574
  74.36990,  31.55909
  74.38992,  37.43608
  74.40995,  38.91389
  74.42998,  43.78904
  74.45000,  52.22433
  74.47003,  66.20071
  74.49005,  75.01507
  74.51008,  75.51675
  74.53010,  81.60506
  74.55013,  80.55257
  74.57015,  84.06663
  74.59018,  84.80728
  74.61020,  78.29610
  74.63023,  75.38445
  74.65025,  61.10556
  74.67028,  58.52816
  74.69031,  54.13212
  74.71033,  55.40705
  74.73036,  55.29709
  74.75038,  56.13020
  74.77041,  58.81361
  74.79043,  56.08976
  74.81046,  53.72456
  74.83048,  44.77099
  74.85051,  45.59128
  74.87053,  37.87994
  74.89056,  35.89998
  74.91059,  31.35478
  74.93061,  31.36706
  74.95064,  29.61934
  74.97066,  28.92593
  74.99069,  27.96387
  75.01071,  23.08019
  75.03074,  24.07685
  75.05077,  23.47495
  75.07079,  25.58463
  75.09082,  24.44588
  75.11084,  23.49976
  75.13087,  19.76802
  75.15089,  21.55646
  75.17092,  24.14653
  75.19094,  24.23429
  75.21097,  24.44756
  75.23100,  23.20871
  75.25102,  26.30651
  75.27105,  24.05150
  75.29107,  23.65124
  75.31110,  23.36144
  75.33112,  24.57650
  75.35115,  24.93561
  75.37118,  23.21130
  75.39120,  24.24440
  75.41123,  19.00254
  75.43125,  20.75227
  75.45128,  18.74579
  75.47130,  22.21482
  75.49133,  22.21656
  75.51135,  22.72540
  75.53138,  20.78139
  75.55141,  20.93763
  75.57143,  23.65574
  75.59146,  26.07606
  75.61148,  23.41414
  75.63151,  22.15844
  75.65154,  20.39647
  75.67156,  20.49372
  75.69159,  20.23731
  75.71161,  21.51944
  75.73164,  22.94212
  75.75167,  22.44923
  75.77169,  21.77085
  75.79172,  18.03413
  75.81174,  19.28703
  75.83177,  18.75781
  75.85179,  22.26351
  75.87182,  23.89117
  75.89185,  20.72055
  75.91187,  20.76162
  75.93190,  21.80910
  75.95192,  23.72882
  75.97195,  21.19337
  75.99197,  21.52280
  76.01200,  21.53649
  76.03203,  20.63321
  76.05205,  28.57260
  76.07208,  23.41971
  76.09211,  24.95242
  76.11213,  20.21334
  76.13216,  20.91229
  76.15218,  22.98514
  76.17221,  19.89700
  76.19224,  22.59928
  76.21226,  21.94350
  76.23229,  21.91187
  76.25231,  24.97157
  76.27234,  25.68765
  76.29236,  23.44607
  76.31239,  21.76944
  76.33242,  23.80561
  76.35244,  23.23743
  76.37247,  22.77741
  76.39250,  25.06596
  76.41252,  22.80361
  76.43255,  23.30398
  76.45257,  22.96711
  76.47260,  22.15303
  76.49263,  22.13441
  76.51265,  21.64966
  76.53268,  22.19240
  76.55270,  24.09835
  76.57273,  20.45278
  76.59276,  21.16415
  76.61278,  21.57055
  76.63281,  21.80805
  76.65283,  22.93709
  76.67286,  21.09558
  76.69289,  21.82849
  76.71291,  20.00408
  76.73294,  21.50959
  76.75297,  23.55250
  76.77299,  20.18991
  76.79302,  19.35233
  76.81304,  23.90124
  76.83307,  23.31686
  76.85310,  21.19266
  76.87312,  22.37056
  76.89315,  22.20251
  76.91318,  22.29477
  76.93320,  20.46150
  76.95323,  21.28629
  76.97325,  22.03181
  76.99328,  21.47593
  77.01331,  22.43446
  77.03333,  19.07644
  77.05336,  20.01388
  77.07339,  22.94742
  77.09341,  23.16970
  77.11344,  22.65041
  77.13346,  27.69904
  77.15349,  23.07687
  77.17352,  24.56149
  77.19354,  19.03171
  77.21357,  20.33054
  77.23360,  19.49150
  77.25362,  19.46915
  77.27365,  20.25488
  77.29367,  21.86271
  77.31370,  22.50222
  77.33373,  18.91714
  77.35375,  20.85576
  77.37378,  23.35210
  77.39381,  23.59490
  77.41383,  22.53541
  77.43386,  22.29629
  77.45389,  23.07166
  77.47391,  25.62460
  77.49394,  19.76401
  77.51397,  23.09421
  77.53399,  20.63730
  77.55402,  20.97654
  77.57405,  19.27756
  77.59407,  20.30275
  77.61410,  22.50098
  77.63412,  20.88689
  77.65415,  20.53609
  77.67418,  19.61224
  77.69420,  22.00395
  77.71423,  23.66508
  77.73426,  22.29446
  77.75428,  22.20028
  77.77431,  27.13359
  77.79434,  23.35326
  77.81436,  23.93799
  77.83439,  22.94427
  77.85442,  23.48368
  77.87444,  19.04310
  77.89447,  21.67796
  77.91450,  21.34855
  77.93452,  20.93882
  77.95455,  18.09896
  77.97458,  19.87599
  77.99460,  21.63853
  78.01463,  24.07707
  78.03466,  22.55938
  78.05468,  21.33469
  78.07471,  19.98326
  78.09474,  21.38717
  78.11476,  24.73069
  78.13479,  22.79269
  78.15482,  22.63985
  78.17484,  20.29876
  78.19487,  21.20494
  78.21490,  21.92010
  78.23492,  21.59683
  78.25495,  21.74963
  78.27498,  22.13419
  78.29500,  21.73300
  78.31503,  20.65946
  78.33506,  21.16857
  78.35508,  20.85188
  78.37511,  25.26913
  78.39514,  22.62931
  78.41516,  20.74981
  78.43519,  19.22891
  78.45522,  20.53828
  78.47524,  24.59619
  78.49527,  20.92959
  78.51530,  20.12054
  78.53532,  22.56245
  78.55535,  21.99354
  78.57538,  23.40987
  78.59541,  18.98903
  78.61543,  21.60315
  78.63546,  20.42636
  78.65549,  21.02144
  78.67551,  21.74739
  78.69554,  20.58950
  78.71557,  19.22593
  78.73559,  20.77042
  78.75562,  20.00482
  78.77565,  24.48782
  78.79568,  24.34201
  78.81570,  22.73636
  78.83573,  22.81578
  78.85576,  25.12476
  78.87578,  21.76236
  78.89581,  19.19069
  78.91584,  18.85277
  78.93586,  20.70642
  78.95589,  21.45216
  78.97592,  20.98749
  78.99595,  22.29582
  79.01597,  22.59978
  79.03600,  21.87727
  79.05603,  20.92754
  79.07605,  20.21582
  79.09608,  18.16510
  79.11611,  20.12769
  79.13613,  21.07717
  79.15616,  21.66676
  79.17619,  22.39703
  79.19622,  21.67391
  79.21624,  22.03667
  79.23627,  21.44087
  79.25630,  23.25088
  79.27632,  17.30458
  79.29635,  19.88555
  79.31638,  23.69107
  79.33640,  22.25846
  79.35643,  19.28307
  79.37646,  22.09074
  79.39649,  23.00300
  79.41651,  24.44304
  79.43654,  23.45678
  79.45657,  20.06303
  79.47660,  19.52891
  79.49662,  21.93386
  79.51665,  22.09262
  79.53668,  20.79454
  79.55670,  24.38473
  79.57673,  24.17695
  79.59676,  20.79618
  79.61679,  22.66243
  79.63681,  21.88388
  79.65684,  19.47799
  79.67687,  22.05658
  79.69689,  23.03517
  79.71692,  24.25682
  79.73695,  21.91669
  79.75698,  21.20555
  79.77700,  19.82463
  79.79703,  24.44903
  79.81706,  23.56561
  79.83709,  24.57022
  79.85711,  24.85095
  79.87714,  24.01415
  79.89717,  21.99003
  79.91720,  23.49788
  79.93722,  25.09095
  79.95725,  21.13689
  79.97728,  19.92636
  79.99731,  23.11800
  80.01733,  22.67614
  80.03736,  22.99695
  80.05739,  22.57439
  80.07741,  23.42922
  80.09744,  19.70017
  80.11747,  22.41524
  80.13750,  21.90427
  80.15753,  18.78597
  80.17755,  22.89919
  80.19758,  23.22654
  80.21761,  20.56640
  80.23763,  20.36805
  80.25766,  23.28929
  80.27769,  19.44972
  80.29772,  18.84315
  80.31775,  20.51702
  80.33777,  21.74830
  80.35780,  19.38439
  80.37783,  21.68281
  80.39786,  22.60470
  80.41788,  25.01149
  80.43791,  22.21047
  80.45794,  23.39945
  80.47797,  23.06373
  80.49799,  23.69837
  80.51802,  20.40680
  80.53805,  22.48276
  80.55808,  22.87962
  80.57810,  19.84943
  80.59813,  21.22512
  80.61816,  19.87479
  80.63819,  25.52863
  80.65822,  24.56193
  80.67824,  19.86201
  80.69827,  20.25298
  80.71830,  19.18143
  80.73833,  19.82030
  80.75835,  21.15687
  80.77838,  22.16209
  80.79841,  22.80259
  80.81844,  21.89110
  80.83847,  23.39584
  80.85849,  24.06847
  80.87852,  21.55005
  80.89855,  21.51518
  80.91858,  22.24613
  80.93860,  22.83689
  80.95863,  21.17703
  80.97866,  22.88926
  80.99869,  18.44168
  81.01872,  22.30861
  81.03874,  24.25305
  81.05877,  24.81013
  81.07880,  20.43965
  81.09883,  22.41530
  81.11885,  23.13776
  81.13888,  21.13866
  81.15891,  20.99600
  81.17894,  24.61724
  81.19897,  23.86676
  81.21899,  21.76166
  81.23902,  23.84532
  81.25905,  21.17018
  81.27908,  21.60236
  81.29911,  22.24673
  81.31913,  21.62624
  81.33916,  21.68981
  81.35919,  21.75361
  81.37922,  24.02911
  81.39924,  20.36566
  81.41927,  22.56630
  81.43930,  22.95199
  81.45933,  23.21331
  81.47936,  23.65505
  81.49939,  22.20877
  81.51941,  22.30574
  81.53944,  23.00143
  81.55947,  24.54864
  81.57950,  24.50810
  81.59953,  25.39508
  81.61955,  26.02310
  81.63958,  27.39491
  81.65961,  24.68503
  81.67964,  23.17803
  81.69967,  25.88077
  81.71969,  26.71512
  81.73972,  30.02827
  81.75975,  27.49557
  81.77978,  27.86638
  81.79981,  30.73261
  81.81984,  35.34885
  81.83986,  31.55532
  81.85989,  34.66863
  81.87992,  36.60493
  81.89995,  41.13569
  81.91998,  42.60254
  81.94000,  46.57911
  81.96003,  55.73297
  81.98006,  57.33336
  82.00009,  71.69295
  82.02012,  78.75634
  82.04015,  97.97604
  82.06017, 117.24221
  82.08020, 125.17542
  82.10023, 145.68184
  82.12026, 165.51235
  82.14029, 158.98747
  82.16032, 145.45251
  82.18034, 138.24471
  82.20037, 128.76519
  82.22040, 105.84988
  82.24043,  98.19031
  82.26046,  95.65410
  82.28049,  89.22689
  82.30051,  89.51149
  82.32054,  85.56480
  82.34057,  87.72769
  82.36060,  96.84325
  82.38063,  98.53930
  82.40066,  99.96687
  82.42068,  88.62832
  82.44071,  80.07510
  82.46074,  65.78186
  82.48077,  57.06306
  82.50080,  44.75030
  82.52083,  43.28547
  82.54085,  40.57481
  82.56088,  33.19794
  82.58091,  31.56327
  82.60094,  30.28780
  82.62097,  28.00540
  82.64100,  28.80508
  82.66103,  25.17358
  82.68105,  22.70909
  82.70108,  21.06010
  82.72111,  22.85392
  82.74114,  24.22468
  82.76117,  23.70314
  82.78120,  23.37641
  82.80123,  25.79885
  82.82126,  22.49443
  82.84128,  21.01109
  82.86131,  23.75219
  82.88134,  23.93863
  82.90137,  23.27505
  82.92140,  21.91544
  82.94143,  20.80185
  82.96146,  24.64338
  82.98148,  23.15693
  83.00151,  21.80208
  83.02154,  22.67832
  83.04157,  23.27375
  83.06160,  24.01606
  83.08163,  23.41638
  83.10166,  22.40501
  83.12169,  20.59687
  83.14171,  21.48162
  83.16174,  20.26082
  83.18177,  19.43159
  83.20180,  20.41724
  83.22183,  21.12612
  83.24186,  22.49653
  83.26189,  22.24394
  83.28192,  22.34981
  83.30194,  22.38655
  83.32197,  22.66408
  83.34200,  20.53336
  83.36203,  21.53216
  83.38206,  19.51691
  83.40209,  18.53107
  83.42212,  20.48740
  83.44215,  20.36449
  83.46218,  21.60522
  83.48220,  22.10758
  83.50223,  23.84997
  83.52226,  21.30730
  83.54229,  19.56828
  83.56232,  19.25737
  83.58235,  23.19540
  83.60238,  20.04253
  83.62241,  20.99036
  83.64244,  21.58562
  83.66246,  23.78158
  83.68249,  21.52358
  83.70252,  21.93100
  83.72255,  22.43696
  83.74258,  21.71228
  83.76261,  21.77851
  83.78264,  21.78547
  83.80267,  24.02734
  83.82270,  19.21488
  83.84272,  20.83727
  83.86275,  19.21580
  83.88278,  20.83375
  83.90281,  19.39404
  83.92284,  20.50125
  83.94287,  20.06572
  83.96290,  21.56495
  83.98293,  23.62755
  84.00296,  19.39986
  84.02299,  21.61782
  84.04302,  19.66270
  84.06305,  20.94427
  84.08308,  23.58517
  84.10311,  22.70076
  84.12313,  22.41416
  84.14316,  24.58471
  84.16319,  21.25526
  84.18322,  23.39809
  84.20325,  23.50295
  84.22328,  19.40766
  84.24331,  19.88990
  84.26334,  20.13814
  84.28337,  20.91766
  84.30340,  20.75503
  84.32343,  21.66662
  84.34345,  22.23542
  84.36349,  23.25712
  84.38351,  20.86710
  84.40354,  21.80820
  84.42357,  21.22912
  84.44360,  20.98216
  84.46363,  22.14192
  84.48366,  19.38333
  84.50369,  21.21018
  84.52372,  19.92379
  84.54375,  21.31432
  84.56378,  21.41785
  84.58381,  21.13037
  84.60384,  19.73603
  84.62387,  21.28703
  84.64390,  20.44272
  84.66393,  20.83592
  84.68395,  17.13022
  84.70398,  19.23261
  84.72401,  22.59008
  84.74404,  22.25235
  84.76407,  22.31296
  84.78410,  21.14430
  84.80413,  20.50543
  84.82416,  20.30907
  84.84419,  19.71812
  84.86422,  19.30372
  84.88425,  20.53445
  84.90428,  23.01676
  84.92431,  19.10601
  84.94434,  22.00988
  84.96437,  20.05165
  84.98440,  21.52748
  85.00443,  20.35898
  85.02446,  23.36870
  85.04449,  24.56550
  85.06452,  22.24115
  85.08455,  20.89143
  85.10458,  20.24896
  85.12461,  20.07329
  85.14463,  19.26502
  85.16466,  24.29538
  85.18469,  22.63434
  85.20472,  20.65217
  85.22475,  22.46407
  85.24478,  23.12195
  85.26481,  20.64286
  85.28484,  22.74427
  85.30487,  20.48164
  85.32490,  21.93982
  85.34493,  19.79457
  85.36496,  17.87777
  85.38499,  19.08203
  85.40502,  21.62232
  85.42505,  20.50077
  85.44508,  21.07559
  85.46511,  21.77370
  85.48514,  19.91626
  85.50517,  19.31740
  85.52520,  21.01745
  85.54523,  21.32685
  85.56526,  19.64700
  85.58529,  21.78496
  85.60532,  20.79645
  85.62535,  22.39290
  85.64538,  19.30770
  85.66541,  19.48881
  85.68544,  20.62566
  85.70547,  19.18392
  85.72550,  20.88327
  85.74553,  20.47999
  85.76556,  20.69099
  85.78559,  19.27115
  85.80562,  19.64037
  85.82565,  21.51852
  85.84568,  21.00717
  85.86571,  20.96148
  85.88574,  20.66011
  85.90577,  19.31688
  85.92580,  19.95324
  85.94583,  18.28343
  85.96586,  18.46861
  85.98589,  20.03156
  86.00592,  21.55568
  86.02595,  20.80186
  86.04598,  19.99476
  86.06601,  19.47915
  86.08604,  19.59567
  86.10607,  22.26417
  86.12610,  23.09530
  86.14613,  22.41551
  86.16616,  23.04977
  86.18619,  23.94117
  86.20622,  22.39486
  86.22625,  22.30770
  86.24628,  25.27741
  86.26631,  20.58101
  86.28634,  21.50535
  86.30637,  18.56231
  86.32640,  23.51585
  86.34643,  21.49366
  86.36646,  21.52230
  86.38649,  19.90464
  86.40652,  22.00471
  86.42655,  19.21581
  86.44658,  20.69797
  86.46661,  21.19365
  86.48664,  21.87739
  86.50667,  22.96853
  86.52671,  19.47818
  86.54674,  23.01933
  86.56677,  21.96897
  86.58680,  18.84865
  86.60683,  22.35974
  86.62686,  22.45696
  86.64689,  21.40116
  86.66692,  20.37332
  86.68695,  23.83339
  86.70698,  24.87420
  86.72701,  23.90146
  86.74704,  22.48718
  86.76707,  19.62674
  86.78710,  20.80850
  86.80713,  25.81079
  86.82716,  21.38640
  86.84719,  19.50332
  86.86722,  21.76952
  86.88725,  21.40271
  86.90728,  20.98270
  86.92731,  21.03626
  86.94735,  20.63906
  86.96737,  20.22254
  86.98740,  21.59098
  87.00744,  20.20404
  87.02747,  22.07149
  87.04750,  22.13939
  87.06753,  21.79297
  87.08756,  20.01907
  87.10759,  23.47217
  87.12762,  20.07733
  87.14765,  21.93973
  87.16768,  21.16768
  87.18771,  20.60990
  87.20774,  21.79581
  87.22777,  23.56327
  87.24780,  22.58409
  87.26784,  23.48154
  87.28787,  23.72796
  87.30790,  22.14572
  87.32793,  22.88633
  87.34796,  20.39943
  87.36799,  20.24592
  87.38802,  22.37690
  87.40805,  20.61684
  87.42808,  23.38485
  87.44811,  22.45751
  87.46814,  22.29717
  87.48817,  18.65535
  87.50820,  21.96878
  87.52824,  22.90404
  87.54827,  26.97238
  87.56830,  23.98706
  87.58833,  23.28187
  87.60836,  21.75248
  87.62839,  20.34605
  87.64842,  23.10428
  87.66845,  20.67372
  87.68848,  22.26136
  87.70851,  22.21860
  87.72854,  21.17315
  87.74857,  22.81715
  87.76861,  20.93200
  87.78864,  18.19496
  87.80867,  20.16655
  87.82870,  21.38593
  87.84873,  21.08501
  87.86876,  24.49978
  87.88879,  23.56646
  87.90882,  20.65807
  87.92885,  18.51263
  87.94889,  23.67399
  87.96892,  19.62832
  87.98895,  21.19662
  88.00898,  20.04341
  88.02901,  20.21852
  88.04904,  24.59352
  88.06907,  21.86529
  88.08910,  19.85278
  88.10913,  19.26909
  88.12916,  21.21287
  88.14920,  20.64582
  88.16923,  21.91807
  88.18926,  21.88494
  88.20929,  21.40446
  88.22932,  23.09811
  88.24935,  22.23463
  88.26938,  22.14394
  88.28941,  21.70176
  88.30945,  20.95712
  88.32948,  20.66529
  88.34951,  18.96249
  88.36954,  19.28642
  88.38957,  19.95131
  88.40960,  23.00756
  88.42963,  20.52357
  88.44967,  21.56493
  88.46970,  20.50594
  88.48973,  22.31025
  88.50976,  21.64374
  88.52979,  23.39233
  88.54982,  19.21007
  88.56985,  21.84783
  88.58989,  22.57691
  88.60992,  21.87722
  88.62995,  21.12998
  88.64998,  23.62026
  88.67001,  22.83088
  88.69004,  21.72161
  88.71007,  21.64178
  88.73011,  21.77670
  88.75014,  19.97931
  88.77017,  20.06928
  88.79020,  22.20910
  88.81023,  22.22903
  88.83026,  22.72322
  88.85029,  20.65518
  88.87032,  18.36292
  88.89036,  19.07419
  88.91039,  20.15963
  88.93042,  21.79970
  88.95045,  18.54708
  88.97048,  19.75499
  88.99051,  23.95206
  89.01055,  20.77346
  89.03058,  19.35282
  89.05061,  20.81610
  89.07064,  24.47454
  89.09067,  20.51763
  89.11071,  21.86048
  89.13074,  20.56245
  89.15077,  20.58640
  89.17080,  22.14411
  89.19083,  21.11373
  89.21086,  22.83424
  89.23090,  23.82729
  89.25093,  21.27624
  89.27096,  19.97377
  89.29099,  23.60455
  89.31102,  23.27155
  89.33106,  19.32367
  89.35109,  18.10249
  89.37112,  18.88522
  89.39115,  22.36599
  89.41118,  21.48902
  89.43121,  20.73995
  89.45125,  20.95689
  89.47128,  21.35569
  89.49131,  22.58724
  89.51134,  22.92176
  89.53137,  20.10109
  89.55140,  21.42510
  89.57144,  19.65332
  89.59147,  22.03065
  89.61150,  21.27844
  89.63153,  21.68097
  89.65157,  22.55598
  89.67160,  21.46726
  89.69163,  20.39358
  89.71166,  24.79021
  89.73169,  25.24755
  89.75173,  24.23983
  89.77176,  24.67454
  89.79179,  22.44072
  89.81182,  21.33524
  89.83185,  22.91060
  89.85189,  23.15902
  89.87192,  22.70412
  89.89195,  25.47679
  89.91198,  26.83468
  89.93201,  25.77800
  89.95205,  23.12272
  89.97208,  22.98891
  89.99211,  22.56033
  90.01214,  24.47601
  90.03217,  26.90270
  90.05221,  25.32195
  90.07224,  26.85126
  90.09227,  29.16575
  90.11230,  28.13901
  90.13234,  29.25661
  90.15237,  32.38489
  90.17240,  33.92389
  90.19243,  35.90405
  90.21247,  35.45996
  90.23250,  35.42949
  90.25253,  42.08252
  90.27256,  44.70109
  90.29260,  47.21788
  90.31263,  55.04804
  90.33266,  64.82516
  90.35269,  79.56905
  90.37272,  85.07066
  90.39276,  99.50465
  90.41279, 109.75381
  90.43282, 114.37207
  90.45285, 122.56864
  90.47289, 122.04649
  90.49292, 122.06444
  90.51295, 108.84106
  90.53298, 109.09168
  90.55302,  99.61120
  90.57305,  83.00271
  90.59308,  76.58227
  90.61311,  76.32121
  90.63315,  68.60714
  90.65318,  65.16445
  90.67321,  69.38480
  90.69324,  70.32253
  90.71328,  70.78922
  90.73331,  73.15138
  90.75334,  74.67799
  90.77337,  70.55487
  90.79341,  69.00618
  90.81344,  68.46887
  90.83347,  57.60735
  90.85351,  48.51929
  90.87354,  43.27204
  90.89357,  42.81924
  90.91360,  39.87369
  90.93364,  35.57527
  90.95367,  32.35522
  90.97370,  26.63414
  90.99373,  25.19735
  91.01377,  27.67035
  91.03380,  26.56301
  91.05383,  23.46868
  91.07386,  25.94145
  91.09390,  25.72859
  91.11393,  23.11512
  91.13396,  23.13033
  91.15400,  23.14513
  91.17403,  22.49238
  91.19406,  21.58911
  91.21410,  23.25146
  91.23413,  23.19632
  91.25416,  22.84425
  91.27419,  19.72143
  91.29423,  21.84635
  91.31426,  22.56742
  91.33429,  23.85210
  91.35432,  18.81633
  91.37436,  20.28451
  91.39439,  22.88478
  91.41442,  19.58245
  91.43446,  21.51484
  91.45449,  20.98002
  91.47452,  17.08533
  91.49456,  17.27869
  91.51459,  20.05244
  91.53462,  21.48811
  91.55465,  20.38590
  91.57469,  21.41979
  91.59472,  22.05012
  91.61475,  20.73663
  91.63479,  18.63676
  91.65482,  20.95418
  91.67485,  21.98047
  91.69489,  21.51005
  91.71492,  18.56931
  91.73495,  20.09489
  91.75499,  22.16462
  91.77502,  24.00197
  91.79505,  20.48390
  91.81509,  21.16942
  91.83512,  23.40809
  91.85515,  22.45134
  91.87519,  19.54632
  91.89522,  18.79935
  91.91525,  23.35964
  91.93529,  20.85419
  91.95532,  20.50651
  91.97535,  19.82447
  91.99539,  20.46512
  92.01542,  19.78100
  92.03545,  20.52954
  92.05549,  20.18460
  92.07552,  19.27123
  92.09555,  21.37070
  92.11559,  19.97432
  92.13562,  20.60283
  92.15565,  23.23048
  92.17569,  20.65871
  92.19572,  22.35941
  92.21575,  18.07265
  92.23579,  21.85047
  92.25582,  22.30291
  92.27585,  21.23809
  92.29589,  21.43353
  92.31592,  19.59638
  92.33596,  21.30487
  92.35599,  20.31738
  92.37602,  21.01002
  92.39605,  20.50346
  92.41609,  18.95471
  92.43612,  21.32921
  92.45616,  21.41370
  92.47619,  20.02388
  92.49622,  20.38871
  92.51626,  20.51599
  92.53629,  19.82822
  92.55632,  24.53703
  92.57636,  20.47376
  92.59639,  20.91177
  92.61643,  22.51817
  92.63646,  20.70278
  92.65649,  17.65983
  92.67653,  20.93970
  92.69656,  23.84674
  92.71659,  19.18537
  92.73663,  22.58961
  92.75666,  20.31500
  92.77669,  19.21986
  92.79673,  21.09041
  92.81676,  22.07983
  92.83680,  21.72138
  92.85683,  23.28601
  92.87686,  20.75992
  92.89690,  17.32907
  92.91693,  20.88998
  92.93697,  19.58031
  92.95700,  21.08830
  92.97703,  21.82697
  92.99707,  22.35222
  93.01710,  22.35926
  93.03714,  20.45797
  93.05717,  18.18857
  93.07720,  22.83630
  93.09724,  22.02704
  93.11727,  19.12458
  93.13731,  20.72120
  93.15734,  21.55905
  93.17737,  19.24245
  93.19741,  21.56002
  93.21744,  17.01461
  93.23748,  21.92519
  93.25751,  19.11742
  93.27755,  17.42076
  93.29758,  19.70460
  93.31761,  20.15039
  93.33765,  20.39604
  93.35768,  18.00113
  93.37772,  19.89539
  93.39775,  20.41567
  93.41778,  22.87829
  93.43782,  20.41186
  93.45785,  19.74373
  93.47789,  20.51187
  93.49792,  21.04971
  93.51795,  17.61187
  93.53799,  21.63698
  93.55802,  22.22007
  93.57806,  20.65330
  93.59809,  17.05991
  93.61813,  16.01041
  93.63816,  19.43933
  93.65820,  19.36553
  93.67823,  23.12274
  93.69826,  24.33092
  93.71830,  21.52766
  93.73833,  19.78652
  93.75837,  19.38754
  93.77840,  20.76545
  93.79844,  19.71155
  93.81847,  21.95802
  93.83851,  22.89155
  93.85854,  21.97959
  93.87858,  22.69971
  93.89861,  19.12934
  93.91864,  21.63036
  93.93868,  21.66248
  93.95871,  20.66982
  93.97875,  18.85647
  93.99878,  18.15938
  94.01882,  18.49913
  94.03885,  19.24969
  94.05889,  21.51061
  94.07892,  19.20344
  94.09895,  21.46344
  94.11899,  18.58901
  94.13902,  18.86355
  94.15906,  20.33989
  94.17909,  19.36485
  94.19913,  21.66468
  94.21916,  19.74417
  94.23920,  19.11408
  94.25923,  20.35687
  94.27927,  18.97796
  94.29930,  19.97295
  94.31934,  18.84552
  94.33937,  18.29874
  94.35941,  19.04821
  94.37944,  19.27775
  94.39948,  20.29152
  94.41951,  20.12334
  94.43955,  21.15555
  94.45958,  20.18766
  94.47961,  19.24512
  94.49965,  20.43491
  94.51969,  18.01830
  94.53972,  21.35137
  94.55976,  18.73313
  94.57979,  20.57879
  94.59983,  24.57686
  94.61986,  21.82778
  94.63990,  19.72658
  94.65993,  20.35660
  94.67997,  21.41874
  94.70000,  18.93325
  94.72004,  19.31102
  94.74007,  19.87991
  94.76011,  21.34830
  94.78014,  17.63145
  94.80018,  22.15388
  94.82021,  22.50821
  94.84025,  22.79311
  94.86028,  22.49244
  94.88032,  22.29284
  94.90035,  23.35637
  94.92039,  23.30514
  94.94042,  20.44737
  94.96046,  20.23999
  94.98049,  21.52919
  95.00053,  23.04217
  95.02056,  18.26200
  95.04060,  21.53325
  95.06063,  22.21355
  95.08067,  23.72191
  95.10070,  23.10115
  95.12074,  19.83216
  95.14078,  20.25913
  95.16081,  21.28299
  95.18084,  22.91277
  95.20088,  22.87344
  95.22092,  22.13382
  95.24095,  21.25200
  95.26099,  20.31568
  95.28102,  20.65444
  95.30106,  20.79346
  95.32109,  24.62804
  95.34113,  23.58261
  95.36116,  21.32124
  95.38120,  21.45837
  95.40124,  21.08706
  95.42127,  22.18497
  95.44131,  25.42617
  95.46134,  22.69863
  95.48138,  25.22091
  95.50141,  28.53756
  95.52145,  28.32360
  95.54149,  32.52537
  95.56152,  34.92634
  95.58156,  38.61797
  95.60159,  38.48629
  95.62163,  47.03305
  95.64166,  55.87564
  95.66170,  63.09080
  95.68173,  65.29427
  95.70177,  73.44995
  95.72181,  73.44286
  95.74184,  76.92992
  95.76188,  70.31604
  95.78191,  61.70952
  95.80195,  53.92846
  95.82199,  45.67446
  95.84202,  43.61424
  95.86206,  38.85787
  95.88209,  39.91244
  95.90213,  35.80898
  95.92216,  37.95595
  95.94220,  39.94619
  95.96224,  41.77517
  95.98227,  45.12286
  96.00231,  47.64731
  96.02234,  49.25366
  96.04238,  45.15731
  96.06241,  42.35442
  96.08245,  41.38790
  96.10249,  41.48749
  96.12252,  37.75218
  96.14256,  31.19774
  96.16260,  25.99275
  96.18263,  24.32108
  96.20267,  26.59223
  96.22270,  23.93428
  96.24274,  24.63695
  96.26278,  22.03642
  96.28281,  22.17443
  96.30285,  21.06449
  96.32289,  23.48615
  96.34292,  18.71296
  96.36296,  23.58177
  96.38299,  22.72096
  96.40303,  23.87045
  96.42307,  19.77148
  96.44310,  21.30877
  96.46314,  20.89555
  96.48317,  18.21854
  96.50321,  20.64266
  96.52325,  19.11157
  96.54328,  21.07174
  96.56332,  22.22768
  96.58336,  20.80690
  96.60339,  20.41336
  96.62343,  21.00159
  96.64347,  21.32090
  96.66350,  21.15862
  96.68354,  21.61971
  96.70357,  25.15025
  96.72361,  23.34620
  96.74365,  19.61836
  96.76368,  22.00270
  96.78372,  18.24049
  96.80376,  17.58888
  96.82379,  19.75825
  96.84383,  20.07431
  96.86387,  17.61860
  96.88390,  18.35778
  96.90394,  24.25326
  96.92398,  20.31844
  96.94401,  19.97533
  96.96405,  20.09816
  96.98409,  19.07134
  97.00412,  21.19151
  97.02416,  22.40847
  97.04420,  21.22891
  97.06423,  21.94614
  97.08427,  18.69545
  97.10431,  21.65749
  97.12434,  22.51105
  97.14438,  22.73879
  97.16442,  20.16447
  97.18445,  20.20258
  97.20449,  20.47199
  97.22453,  21.02414
  97.24456,  18.32030
  97.26460,  17.67740
  97.28464,  21.38568
  97.30467,  21.38919
  97.32471,  19.55462
  97.34475,  19.98583
  97.36478,  22.42596
  97.38482,  20.89997
  97.40486,  19.82744
  97.42490,  16.94173
  97.44493,  18.84736
  97.46497,  19.12595
  97.48501,  18.46997
  97.50504,  20.15761
  97.52508,  20.13781
  97.54512,  19.46321
  97.56516,  20.55986
  97.58519,  20.08006
  97.60523,  20.07330
  97.62526,  20.79269
  97.64530,  21.37591
  97.66534,  18.55426
  97.68538,  19.13730
  97.70541,  19.72306
  97.72545,  19.34570
  97.74549,  21.80237
  97.76553,  22.83997
  97.78556,  24.28202
  97.80560,  22.67872
  97.82564,  21.45049
  97.84568,  19.22612
  97.86571,  21.78793
  97.88575,  21.98615
  97.90579,  21.42402
  97.92582,  22.94841
  97.94586,  20.20338
  97.96590,  21.56728
  97.98593,  20.49689
  98.00597,  20.66342
  98.02601,  21.88740
  98.04605,  21.86166
  98.06609,  25.84970
  98.08612,  22.33876
  98.10616,  20.50483
  98.12620,  21.11179
  98.14623,  22.14646
  98.16627,  22.86193
  98.18631,  22.85526
  98.20635,  22.35350
  98.22639,  20.49717
  98.24642,  22.86852
  98.26646,  25.05088
  98.28650,  28.05849
  98.30654,  23.32516
  98.32657,  24.33649
  98.34661,  25.06435
  98.36665,  28.77445
  98.38669,  28.46638
  98.40672,  29.99604
  98.42676,  34.15249
  98.44680,  32.15920
  98.46684,  34.14325
  98.48688,  40.63081
  98.50691,  46.23215
  98.52695,  50.02228
  98.54699,  55.88397
  98.56702,  62.53299
  98.58706,  71.39670
  98.60710,  81.41321
  98.62714,  88.57535
  98.64718,  88.80957
  98.66721,  93.81826
  98.68725,  93.05612
  98.70729,  88.21624
  98.72733,  78.24105
  98.74737,  70.88648
  98.76741,  59.70166
  98.78744,  59.23264
  98.80748,  56.39150
  98.82752,  52.50136
  98.84756,  49.16307
  98.86759,  45.44408
  98.88763,  47.97252
  98.90767,  52.43537
  98.92771,  50.13629
  98.94775,  53.10521
  98.96779,  54.30867
  98.98782,  55.42992
  99.00786,  50.97934
  99.02790,  48.03941
  99.04794,  47.17435
  99.06798,  42.80306
  99.08802,  40.43280
  99.10805,  34.55962
  99.12809,  30.70601
  99.14813,  31.89231
  99.16817,  29.35899
  99.18821,  30.55127
  99.20824,  25.66584
  99.22828,  24.52978
  99.24832,  27.45493
  99.26836,  23.72334
  99.28840,  22.26005
  99.30844,  22.17328
  99.32847,  23.31635
  99.34851,  20.17709
  99.36855,  19.11113
  99.38859,  20.47480
  99.40863,  23.56818
  99.42867,  24.36480
  99.44871,  20.79032
  99.46874,  21.49226
  99.48878,  19.57381
  99.50882,  19.16762
  99.52886,  20.98251
  99.54890,  22.09208
  99.56894,  22.65410
  99.58897,  21.77691
  99.60901,  20.33752
  99.62905,  22.14579
  99.64909,  21.09933
  99.66913,  20.34216
  99.68917,  21.40482
  99.70921,  22.12431
  99.72925,  21.09122
  99.74928,  19.95609
  99.76932,  21.96969
  99.78936,  20.05534
  99.80940,  23.24537
  99.82944,  21.26502
  99.84948,  19.99015
  99.86952,  17.42081
  99.88956,  18.39189
  99.90959,  20.92105
  99.92963,  22.31371
  99.94967,  22.85151
  99.96971,  20.96645
  99.98975,  18.80550
 100.00979,  18.84894
 100.02983,  19.77295
 100.04987,  19.50015
 100.06991,  22.48677
 100.08995,  19.62699
 100.10998,  21.45490
 100.13002,  21.10732
 100.15006,  20.22080
 100.17010,  19.55014
 100.19014,  19.56142
 100.21018,  18.58329
 100.23022,  19.22499
 100.25026,  16.96421
 100.27030,  18.75390
 100.29034,  19.02634
 100.31038,  21.86378
 100.33041,  20.65624
 100.35045,  20.48192
 100.37049,  20.99885
 100.39053,  20.22576
 100.41057,  20.07789
 100.43061,  19.32264
 100.45065,  19.70342
 100.47069,  21.56227
 100.49073,  19.67676
 100.51077,  19.95475
 100.53081,  20.42168
 100.55085,  20.60139
 100.57089,  18.44312
 100.59093,  21.39240
 100.61096,  19.56547
 100.63101,  16.56283
 100.65104,  14.61818
 100.67108,  18.99007
 100.69112,  21.68541
 100.71116,  19.00353
 100.73120,  20.99067
 100.75124,  20.60412
 100.77128,  17.66261
 100.79132,  20.61653
 100.81136,  21.27731
 100.83140,  19.87042
 100.85144,  19.66204
 100.87148,  19.26706
 100.89152,  20.92706
 100.91156,  18.81732
 100.93160,  18.65821
 100.95164,  15.77234
 100.97168,  18.92067
 100.99172,  20.71570
 101.01176,  19.75144
 101.03180,  20.48140
 101.05184,  17.29239
 101.07188,  18.86375
 101.09191,  19.79191
 101.11196,  20.11783
 101.13200,  22.85689
 101.15204,  19.83780
 101.17207,  19.39581
 101.19212,  19.88211
 101.21216,  19.56573
 101.23220,  19.97122
 101.25224,  18.70010
 101.27228,  19.65344
 101.29232,  19.03683
 101.31236,  21.19603
 101.33239,  19.55973
 101.35244,  20.31898
 101.37248,  19.94364
 101.39251,  20.35649
 101.41256,  20.70454
 101.43260,  21.20866
 101.45263,  20.69492
 101.47268,  19.75336
 101.49272,  17.87303
 101.51276,  19.04682
 101.53280,  16.16326
 101.55284,  19.68601
 101.57288,  17.29349
 101.59292,  17.14283
 101.61296,  16.59818
 101.63300,  17.75769
 101.65304,  17.43781
 101.67308,  20.31554
 101.69312,  16.69290
 101.71316,  20.33489
 101.73320,  19.29071
 101.75324,  20.74769
 101.77328,  18.42804
 101.79332,  17.37166
 101.81336,  20.52514
 101.83340,  22.45601
 101.85344,  22.14740
 101.87348,  17.90845
 101.89352,  19.06288
 101.91356,  20.55439
 101.93360,  20.43603
 101.95364,  19.00904
 101.97369,  19.17703
 101.99373,  18.25401
 102.01377,  19.56486
 102.03381,  18.91258
 102.05385,  17.12072
 102.07389,  17.63148
 102.09393,  20.06496
 102.11397,  19.42051
 102.13401,  19.30160
 102.15405,  18.63029
 102.17409,  16.80454
 102.19413,  17.60728
 102.21417,  17.79885
 102.23421,  16.11221
 102.25426,  17.41922
 102.27430,  16.41454
 102.29434,  18.26738
 102.31438,  19.50849
 102.33442,  18.85734
 102.35446,  16.69432
 102.37450,  17.30335
 102.39454,  21.88844
 102.41458,  19.85886
 102.43462,  21.04146
 102.45467,  20.52041
 102.47471,  19.21358
 102.49475,  19.41082
 102.51479,  20.17816
 102.53483,  19.68277
 102.55487,  18.80775
 102.57491,  17.73691
 102.59495,  17.49278
 102.61499,  18.90728
 102.63503,  15.71431
 102.65508,  19.87717
 102.67512,  14.66939
 102.69516,  18.35721
 102.71520,  19.77859
 102.73524,  19.44234
 102.75528,  19.90269
 102.77532,  21.09802
 102.79537,  20.11981
 102.81541,  16.47956
 102.83545,  18.60068
 102.85549,  16.99371
 102.87553,  17.62940
 102.89557,  17.76816
 102.91561,  17.13229
 102.93566,  18.75596
 102.95570,  18.95067
 102.97574,  17.23430
 102.99578,  17.66396
 103.01582,  16.30281
 103.03586,  18.22018
 103.05590,  21.00282
 103.07595,  20.88578
 103.09599,  18.54987
 103.11603,  20.31485
 103.13607,  17.94623
 103.15611,  18.97334
 103.17615,  20.50182
 103.19620,  19.88847
 103.21624,  18.45545
 103.23628,  15.51853
 103.25632,  17.01548
 103.27636,  18.08382
 103.29640,  17.40696
 103.31645,  16.60602
 103.33649,  18.94617
 103.35653,  21.46007
 103.37657,  17.85993
 103.39661,  19.68138
 103.41665,  16.07590
 103.43670,  18.05492
 103.45674,  14.81837
 103.47678,  17.76805
 103.49682,  18.66942
 103.51686,  19.05230
 103.53691,  19.26180
 103.55695,  19.89562
 103.57699,  19.36496
 103.59703,  19.60397
 103.61708,  17.43009
 103.63712,  18.42193
 103.65716,  18.76456
 103.67720,  21.63097
 103.69724,  19.53051
 103.71728,  19.35157
 103.73733,  17.73786
 103.75737,  17.36128
 103.77741,  18.33745
 103.79745,  18.54138
 103.81750,  20.17384
 103.83754,  19.95395
 103.85758,  20.28912
 103.87762,  15.99117
 103.89767,  20.94977
 103.91771,  19.72664
 103.93775,  18.58323
 103.95779,  21.49255
 103.97783,  18.80536
 103.99788,  16.86690
 104.01792,  18.37879
 104.03796,  19.86161
 104.05800,  21.24368
 104.07805,  19.74483
 104.09809,  19.20377
 104.11813,  22.23611
 104.13817,  20.64791
 104.15822,  19.45476
 104.17826,  19.43906
 104.19830,  17.99501
 104.21835,  17.14836
 104.23839,  19.02135
 104.25843,  20.51235
 104.27847,  19.56911
 104.29852,  19.63590
 104.31856,  17.52585
 104.33860,  16.54008
 104.35864,  16.82544
 104.37869,  20.01263
 104.39873,  17.71007
 104.41877,  21.24105
 104.43882,  20.00245
 104.45886,  20.24610
 104.47890,  19.89314
 104.49895,  18.02799
 104.51899,  16.52645
 104.53903,  17.95735
 104.55907,  21.66894
 104.57912,  16.95939
 104.59916,  17.26399
 104.61920,  16.49071
 104.63925,  18.10531
 104.65929,  17.82806
 104.67933,  18.83125
 104.69938,  17.45309
 104.71942,  17.47496
 104.73946,  17.64932
 104.75950,  18.95309
 104.77955,  16.59588
 104.79959,  16.68319
 104.81963,  19.64299
 104.83968,  20.00734
 104.85972,  19.83631
 104.87976,  18.98260
 104.89981,  18.18947
 104.91985,  22.42747
 104.93989,  18.78129
 104.95994,  19.07011
 104.97998,  19.44278
 105.00002,  19.42178
 105.02007,  18.38836
 105.04011,  21.02936
 105.06015,  19.78195
 105.08020,  17.95899
 105.10024,  16.35146
 105.12029,  16.43314
 105.14033,  14.79146
 105.16037,  19.13244
 105.18041,  18.34556
 105.20046,  16.85403
 105.22050,  18.94805
 105.24055,  18.81877
 105.26059,  15.74893
 105.28063,  18.41032
 105.30068,  19.14058
 105.32072,  20.53102
 105.34076,  19.50632
 105.36081,  16.43214
 105.38085,  20.72316
 105.40090,  19.32755
 105.42094,  18.92927
 105.44098,  18.45003
 105.46103,  17.41132
 105.48107,  14.71701
 105.50111,  16.40114
 105.52116,  16.52078
 105.54120,  17.16893
 105.56125,  20.03385
 105.58129,  17.35578
 105.60134,  20.11910
 105.62138,  19.60091
 105.64142,  21.32800
 105.66147,  19.46989
 105.68151,  19.90857
 105.70156,  20.59636
 105.72160,  20.74964
 105.74164,  19.50023
 105.76169,  16.17274
 105.78173,  17.91689
 105.80178,  19.28981
 105.82182,  20.95069
 105.84187,  18.61739
 105.86191,  22.20446
 105.88195,  18.85197
 105.90200,  17.72181
 105.92204,  20.32243
 105.94209,  18.64232
 105.96213,  17.34243
 105.98218,  20.83563
 106.00222,  22.56729
 106.02226,  20.53845
 106.04231,  21.85439
 106.06235,  17.48262
 106.08240,  18.14302
 106.10244,  20.44057
 106.12249,  19.01616
 106.14253,  18.12405
 106.16257,  17.03642
 106.18262,  14.83235
 106.20267,  18.05644
 106.22271,  18.24994
 106.24275,  17.74173
 106.26280,  16.16006
 106.28284,  21.15272
 106.30289,  18.14138
 106.32293,  19.03810
 106.34298,  19.75404
 106.36302,  21.65610
 106.38307,  20.67211
 106.40311,  19.10462
 106.42316,  19.57791
 106.44320,  20.95067
 106.46325,  18.59035
 106.48329,  20.27660
 106.50334,  18.12629
 106.52338,  17.31069
 106.54343,  18.17000
 106.56347,  18.42454
 106.58352,  17.61308
 106.60356,  17.62075
 106.62361,  21.22064
 106.64365,  19.60223
 106.66370,  19.02884
 106.68374,  18.16563
 106.70379,  16.05822
 106.72383,  17.92506
 106.74388,  20.21475
 106.76392,  18.08613
 106.78397,  19.76117
 106.80401,  17.25359
 106.82406,  17.87194
 106.84410,  17.42195
 106.86415,  17.64559
 106.88420,  19.74481
 106.90424,  18.36207
 106.92429,  16.19562
 106.94433,  19.02985
 106.96438,  18.21714
 106.98442,  19.56106
 107.00447,  17.49804
 107.02451,  16.67640
 107.04456,  16.99955
 107.06460,  18.22394
 107.08465,  18.92338
 107.10469,  20.11041
 107.12474,  19.91155
 107.14478,  19.82797
 107.16483,  17.93817
 107.18488,  19.17793
 107.20492,  20.69681
 107.22497,  17.08066
 107.24501,  17.78459
 107.26506,  20.65588
 107.28511,  19.84445
 107.30515,  21.42403
 107.32520,  18.47863
 107.34524,  19.46980
 107.36529,  17.82312
 107.38533,  14.91141
 107.40538,  20.00596
 107.42543,  20.20055
 107.44547,  22.42863
 107.46552,  20.89239
 107.48556,  18.12114
 107.50561,  17.34032
 107.52566,  21.55427
 107.54570,  20.11676
 107.56575,  19.73619
 107.58579,  18.35355
 107.60584,  17.81283
 107.62589,  18.26767
 107.64593,  16.73625
 107.66598,  17.38244
 107.68603,  19.67869
 107.70607,  19.22196
 107.72612,  19.69206
 107.74616,  16.47425
 107.76621,  16.75567
 107.78626,  21.48011
 107.80630,  17.92444
 107.82635,  16.38118
 107.84640,  16.75175
 107.86644,  18.80642
 107.88649,  17.94151
 107.90654,  19.49313
 107.92658,  18.01519
 107.94663,  18.56600
 107.96667,  17.50945
 107.98672,  16.37883
 108.00677,  17.82794
 108.02681,  18.87009
 108.04686,  18.72602
 108.06691,  18.67681
 108.08695,  18.58931
 108.10700,  20.52189
 108.12705,  20.30460
 108.14709,  19.34226
 108.16714,  19.72231
 108.18719,  19.69159
 108.20723,  21.19137
 108.22728,  18.41962
 108.24733,  17.79758
 108.26737,  17.42312
 108.28742,  15.50672
 108.30747,  17.61179
 108.32752,  20.73946
 108.34756,  21.15484
 108.36761,  19.03995
 108.38766,  18.90833
 108.40770,  20.94289
 108.42775,  20.70493
 108.44780,  16.90663
 108.46785,  18.69542
 108.48789,  18.97014
 108.50794,  18.04855
 108.52799,  20.33850
 108.54803,  16.77397
 108.56808,  20.94326
 108.58813,  20.00233
 108.60817,  19.05046
 108.62822,  18.08798
 108.64827,  20.95702
 108.66832,  19.25236
 108.68836,  18.90317
 108.70841,  18.33345
 108.72846,  23.46717
 108.74851,  19.39932
 108.76855,  18.78442
 108.78860,  17.10042
 108.80865,  17.86386
 108.82869,  18.58575
 108.84874,  15.62648
 108.86879,  19.90837
 108.88884,  18.60433
 108.90889,  17.55934
 108.92893,  15.92552
 108.94898,  18.24135
 108.96903,  19.40636
 108.98908,  20.16702
 109.00912,  17.25521
 109.02917,  17.58152
 109.04922,  16.12376
 109.06927,  19.38364
 109.08932,  20.58226
 109.10936,  16.45057
 109.12941,  17.74796
 109.14946,  14.58123
 109.16951,  17.52566
 109.18955,  20.59965
 109.20960,  21.64044
 109.22965,  22.49979
 109.24970,  17.84614
 109.26975,  17.97008
 109.28980,  18.08409
 109.30984,  18.82999
 109.32989,  18.09701
 109.34994,  21.22844
 109.36999,  21.53497
 109.39004,  20.84833
 109.41008,  17.59584
 109.43013,  17.26554
 109.45018,  18.65247
 109.47023,  17.53485
 109.49028,  18.36295
 109.51033,  18.06725
 109.53037,  20.12100
 109.55042,  20.83548
 109.57047,  18.65407
 109.59052,  20.87042
 109.61057,  16.87540
 109.63062,  18.85386
 109.65066,  18.62159
 109.67071,  18.09567
 109.69076,  21.78342
 109.71081,  20.52553
 109.73086,  19.84393
 109.75091,  19.59907
 109.77095,  16.91332
 109.79100,  17.46460
 109.81105,  19.24452
 109.83110,  18.89960
 109.85115,  18.06752
 109.87120,  16.56646
 109.89125,  16.86015
 109.91130,  15.75829
 109.93135,  17.78215
 109.95139,  17.88723
 109.97144,  19.19423
 109.99149,  18.81227
 110.01154,  18.72129
 110.03159,  20.15498
 110.05164,  17.07382
 110.07169,  16.43476
 110.09174,  16.88211
 110.11178,  16.57755
 110.13183,  19.07507
 110.15188,  17.94734
 110.17193,  18.15805
 110.19198,  22.39151
 110.21203,  18.95586
 110.23208,  17.05668
 110.25213,  17.78927
 110.27218,  18.04474
 110.29223,  17.21306
 110.31227,  21.05309
 110.33233,  18.73113
 110.35237,  19.51404
 110.37242,  17.30223
 110.39247,  17.96290
 110.41252,  19.78948
 110.43257,  17.10592
 110.45262,  19.73419
 110.47267,  18.92325
 110.49272,  19.30954
 110.51277,  17.72869
 110.53282,  20.35191
 110.55287,  18.71428
 110.57292,  16.70089
 110.59297,  17.07094
 110.61302,  18.42231
 110.63307,  18.88278
 110.65312,  18.05888
 110.67317,  17.74594
 110.69322,  20.13766
 110.71327,  19.23055
 110.73332,  19.56833
 110.75337,  19.59752
 110.77341,  21.16305
 110.79347,  20.15883
 110.81352,  18.48039
 110.83356,  18.01976
 110.85361,  17.79578
 110.87367,  17.75120
 110.89372,  18.97731
 110.91377,  23.53665
 110.93382,  19.93406
 110.95387,  20.51527
 110.97392,  20.34696
 110.99397,  17.25138
 111.01401,  18.75381
 111.03407,  18.06589
 111.05412,  19.38525
 111.07417,  17.39479
 111.09422,  20.23709
 111.11427,  21.07361
 111.13432,  19.18493
 111.15437,  20.27629
 111.17442,  21.49283
 111.19447,  20.47499
 111.21452,  17.76996
 111.23457,  19.12774
 111.25462,  16.88724
 111.27467,  15.79598
 111.29472,  17.33624
 111.31477,  16.66357
 111.33482,  17.80574
 111.35487,  18.11194
 111.37492,  17.69794
 111.39497,  20.72078
 111.41502,  21.77828
 111.43507,  20.55222
 111.45513,  21.11814
 111.47517,  23.82591
 111.49523,  19.75501
 111.51528,  18.27853
 111.53533,  15.01879
 111.55538,  16.62192
 111.57543,  18.10392
 111.59548,  21.95115
 111.61553,  18.73419
 111.63558,  17.29124
 111.65563,  17.82355
 111.67569,  19.58266
 111.69574,  19.71622
 111.71579,  16.79277
 111.73584,  18.82238
 111.75589,  18.37485
 111.77594,  18.64510
 111.79599,  16.95206
 111.81604,  17.63397
 111.83609,  17.52139
 111.85615,  17.84613
 111.87620,  18.01213
 111.89625,  19.39720
 111.91630,  19.26703
 111.93635,  18.32061
 111.95640,  16.96558
 111.97645,  19.88919
 111.99650,  17.26950
 112.01655,  19.28585
 112.03661,  19.54777
 112.05666,  20.98552
 112.07671,  15.52273
 112.09676,  20.33374
 112.11681,  20.90312
 112.13686,  21.29750
 112.15692,  22.52577
 112.17697,  19.45425
 112.19702,  16.78162
 112.21707,  16.83036
 112.23712,  17.94683
 112.25717,  18.41615
 112.27723,  18.74948
 112.29728,  18.51707
 112.31733,  19.41440
 112.33738,  16.92567
 112.35743,  17.97429
 112.37749,  19.07009
 112.39754,  18.15911
 112.41759,  18.68055
 112.43764,  16.30109
 112.45769,  20.03996
 112.47775,  18.79677
 112.49780,  16.68688
 112.51785,  16.56282
 112.53790,  16.65231
 112.55796,  18.59746
 112.57801,  17.32148
 112.59806,  17.87911
 112.61811,  21.19731
 112.63816,  21.24070
 112.65822,  19.54392
 112.67827,  17.87918
 112.69832,  18.22994
 112.71837,  19.16694
 112.73843,  17.30482
 112.75848,  20.30937
 112.77853,  17.94305
 112.79858,  17.96211
 112.81864,  17.39789
 112.83869,  19.12997
 112.85874,  17.27515
 112.87879,  19.85339
 112.89885,  17.47274
 112.91890,  20.21109
 112.93895,  21.53334
 112.95900,  21.05899
 112.97906,  19.27566
 112.99911,  20.16814
 113.01916,  18.35838
 113.03922,  18.62325
 113.05927,  17.75380
 113.07932,  19.74575
 113.09937,  18.85031
 113.11943,  19.17357
 113.13948,  18.74379
 113.15953,  18.77526
 113.17959,  18.98938
 113.19964,  20.72250
 113.21969,  20.10975
 113.23974,  18.37211
 113.25980,  18.58222
 113.27985,  19.06461
 113.29991,  17.38719
 113.31996,  19.88408
 113.34001,  19.40589
 113.36006,  18.55812
 113.38012,  19.02390
 113.40017,  20.00158
 113.42022,  17.17334
 113.44028,  16.01870
 113.46033,  17.04807
 113.48038,  19.33805
 113.50044,  18.25025
 113.52049,  18.66884
 113.54055,  17.65186
 113.56060,  18.35385
 113.58065,  17.32902
 113.60071,  18.25227
 113.62076,  19.73028
 113.64081,  19.94611
 113.66087,  18.40419
 113.68092,  15.87401
 113.70098,  18.60389
 113.72103,  17.41896
 113.74108,  16.70237
 113.76114,  16.76646
 113.78119,  17.43288
 113.80124,  18.97292
 113.82130,  16.08056
 113.84135,  17.65110
 113.86141,  18.91259
 113.88146,  18.35878
 113.90151,  21.04457
 113.92157,  23.09785
 113.94162,  20.12798
 113.96168,  20.24254
 113.98173,  19.83793
 114.00178,  17.81546
 114.02184,  16.23006
 114.04189,  18.17307
 114.06195,  20.37972
 114.08200,  21.63784
 114.10206,  19.73244
 114.12211,  20.56804
 114.14217,  18.69689
 114.16222,  20.57477
 114.18227,  22.52073
 114.20233,  17.94406
 114.22238,  18.94584
 114.24244,  20.88236
 114.26249,  17.91171
 114.28255,  17.11842
 114.30260,  21.95566
 114.32266,  20.18875
 114.34271,  18.10782
 114.36277,  17.64014
 114.38282,  18.60611
 114.40287,  21.54296
 114.42293,  18.08217
 114.44298,  20.28133
 114.46304,  16.86863
 114.48310,  20.06821
 114.50315,  21.68998
 114.52320,  19.12779
 114.54326,  20.43941
 114.56332,  17.60282
 114.58337,  16.75673
 114.60342,  20.74690
 114.62348,  16.55083
 114.64353,  16.70061
 114.66359,  20.80146
 114.68365,  17.65026
 114.70370,  16.73600
 114.72376,  17.62550
 114.74381,  18.10435
 114.76387,  16.82585
 114.78392,  16.39119
 114.80398,  18.53504
 114.82403,  17.43840
 114.84409,  17.77285
 114.86414,  19.40699
 114.88420,  16.25720
 114.90426,  18.33457
 114.92431,  19.89159
 114.94437,  20.25088
 114.96442,  18.59631
 114.98448,  19.48799
 115.00453,  17.95505
 115.02459,  21.17820
 115.04465,  18.49571
 115.06470,  18.68324
 115.08476,  19.10146
 115.10481,  19.61836
 115.12487,  18.94026
 115.14492,  22.62797
 115.16498,  16.82445
 115.18504,  20.55349
 115.20509,  21.05805
 115.22515,  19.72688
 115.24520,  21.59961
 115.26526,  18.79743
 115.28531,  21.81972
 115.30537,  20.75179
 115.32543,  18.75323
 115.34548,  20.39813
 115.36554,  19.35909
 115.38560,  18.48425
 115.40565,  19.42084
 115.42571,  20.00783
 115.44577,  19.48325
 115.46582,  20.71301
 115.48588,  23.30324
 115.50594,  19.65990
 115.52599,  19.76908
 115.54605,  18.73828
 115.56611,  22.36596
 115.58616,  21.58975
 115.60622,  24.45001
 115.62628,  21.54192
 115.64633,  27.72601
 115.66639,  26.03534
 115.68644,  26.23398
 115.70650,  27.37691
 115.72656,  28.88654
 115.74661,  28.44862
 115.76667,  32.73000
 115.78673,  30.53574
 115.80679,  29.44301
 115.82684,  34.56936
 115.84690,  38.37387
 115.86696,  38.69483
 115.88701,  37.89328
 115.90707,  45.65909
 115.92713,  46.34102
 115.94719,  47.54326
 115.96724,  40.52182
 115.98730,  43.29706
 116.00736,  37.40094
 116.02741,  35.19087
 116.04747,  38.01106
 116.06753,  39.97722
 116.08759,  35.98040
 116.10764,  31.72478
 116.12770,  32.22561
 116.14776,  27.76498
 116.16782,  32.10508
 116.18787,  28.77021
 116.20793,  28.58480
 116.22799,  27.56811
 116.24805,  28.33422
 116.26810,  28.55619
 116.28816,  25.74137
 116.30822,  31.31582
 116.32828,  30.53942
 116.34834,  31.55999
 116.36839,  31.70076
 116.38845,  28.90332
 116.40851,  29.27003
 116.42857,  27.55138
 116.44863,  27.56262
 116.46868,  31.62907
 116.48874,  28.38086
 116.50880,  25.39709
 116.52886,  31.88428
 116.54892,  26.78758
 116.56897,  22.15237
 116.58903,  22.60383
 116.60909,  20.67257
 116.62915,  20.91703
 116.64921,  21.74519
 116.66927,  20.83906
 116.68932,  20.55494
 116.70938,  18.55032
 116.72944,  19.17961
 116.74950,  18.08008
 116.76956,  21.98715
 116.78962,  20.73884
 116.80968,  17.29697
 116.82973,  17.03269
 116.84979,  17.44518
 116.86985,  18.89269
 116.88991,  22.27209
 116.90997,  18.90433
 116.93003,  18.98139
 116.95009,  19.34321
 116.97015,  18.02218
 116.99020,  19.67463
 117.01026,  19.21967
 117.03032,  18.44092
 117.05038,  20.83263
 117.07044,  22.92462
 117.09050,  22.17959
 117.11056,  22.99484
 117.13062,  18.90621
 117.15067,  21.02429
 117.17074,  21.37754
 117.19079,  20.39433
 117.21085,  21.36798
 117.23091,  19.57531
 117.25097,  20.99545
 117.27103,  21.40685
 117.29109,  20.99581
 117.31115,  24.51202
 117.33121,  21.64755
 117.35127,  22.13209
 117.37133,  22.14337
 117.39139,  20.93511
 117.41145,  25.25050
 117.43151,  21.40933
 117.45157,  21.80844
 117.47163,  24.71251
 117.49169,  23.23115
 117.51175,  27.04579
 117.53180,  25.68009
 117.55186,  27.38779
 117.57192,  28.26728
 117.59198,  26.81026
 117.61205,  32.75458
 117.63211,  30.27741
 117.65216,  35.18650
 117.67222,  38.76240
 117.69229,  35.28912
 117.71235,  35.41329
 117.73241,  33.92806
 117.75247,  38.78493
 117.77252,  36.93889
 117.79259,  36.07988
 117.81265,  31.95257
 117.83271,  34.28645
 117.85277,  33.61955
 117.87283,  33.31046
 117.89289,  28.91230
 117.91295,  29.65459
 117.93301,  29.09362
 117.95307,  28.15622
 117.97313,  27.44311
 117.99319,  30.62935
 118.01325,  26.81698
 118.03331,  24.61688
 118.05337,  24.95597
 118.07343,  25.75500
 118.09349,  26.78805
 118.11355,  25.59770
 118.13362,  23.64023
 118.15368,  26.09739
 118.17374,  26.17128
 118.19380,  29.05845
 118.21386,  26.40958
 118.23392,  25.95004
 118.25398,  27.29740
 118.27404,  26.66205
 118.29410,  26.79502
 118.31417,  27.41769
 118.33423,  29.43727
 118.35429,  24.06783
 118.37435,  25.12602
 118.39441,  24.46892
 118.41447,  21.75252
 118.43453,  22.50271
 118.45459,  21.12753
 118.47465,  18.64527
 118.49472,  24.34196
 118.51478,  21.60579
 118.53484,  20.01313
 118.55490,  19.55711
 118.57496,  20.03609
 118.59503,  21.45900
 118.61509,  20.88468
 118.63515,  20.16452
 118.65521,  20.45998
 118.67527,  20.63494
 118.69533,  20.43218
 118.71540,  20.81694
 118.73546,  17.64040
 118.75552,  19.77362
 118.77558,  19.26931
 118.79564,  19.37294
 118.81571,  18.24616
 118.83577,  19.84624
 118.85583,  17.75167
 118.87589,  19.40384
 118.89595,  19.22921
 118.91601,  19.32449
 118.93608,  20.41064
 118.95614,  17.93664
 118.97620,  17.16296
 118.99627,  18.94565
 119.01633,  16.75546
 119.03639,  17.09844
 119.05645,  19.39089
 119.07651,  19.44126
 119.09658,  16.99404
 119.11664,  17.95150
 119.13670,  19.27711
 119.15677,  18.01584
 119.17683,  18.21785
 119.19689,  18.59807
 119.21695,  19.00660
 119.23702,  19.19802
 119.25708,  17.47873
 119.27714,  19.13625
 119.29721,  17.85578
 119.31727,  17.58325
 119.33733,  18.95180
 119.35740,  16.76813
 119.37746,  21.57540
 119.39752,  17.94298
 119.41758,  18.98616
 119.43765,  18.69569
 119.45771,  16.86954
